onset,duration,trial_type,response_time,word,response,correct_resp,gender,age,sub,ses,run,year,month,day,hour,minute
7.299797200015746,0.6860112999565899,image_neg,0.4199121999554336,dictation,b,0.0,male,21.0,101,1,5,2023,3,23,11,31
14.69974850001745,0.68615259998478,image_neg,0.5367616999428719,dangerous,b,0.0,male,21.0,101,1,5,2023,3,23,11,31
27.29930109996349,0.6867041999939794,image_pos,0.5037918000016361,corn,y,0.0,male,21.0,101,1,5,2023,3,23,11,31
37.29773260001093,0.6882403999334201,image_pos,0.5554192999843508,theater,y,0.0,male,21.0,101,1,5,2023,3,23,11,31
47.2976574000204,0.6885005999356508,image_neg,0.5057249999372289,ant,b,0.0,male,21.0,101,1,5,2023,3,23,11,31
54.697933400049806,0.6882551999297064,image_pos,0.5720226999837905,book,y,0.0,male,21.0,101,1,5,2023,3,23,11,31
67.29774569999427,0.6886876999633387,image_neg,0.9890720000257716,arm,b,0.0,male,21.0,101,1,5,2023,3,23,11,31
77.29829559999052,0.688135200063698,image_pos,0.6720969000598416,bed,y,0.0,male,21.0,101,1,5,2023,3,23,11,31
87.2981456000125,0.6883692999836057,image_pos,0.688847600016743,awe,y,0.0,male,21.0,101,1,5,2023,3,23,11,31
97.29803950001951,0.688518299954012,image_neg,0.7890572999604046,dead,b,0.0,male,21.0,101,1,5,2023,3,23,11,31
104.69806339999197,0.6886341000208347,image_neg,0.755842600017786,umbrella,b,0.0,male,21.0,101,1,5,2023,3,23,11,31
114.6981993999798,0.6885661999694861,image_pos,0.6389061000663787,mandolin,y,0.0,male,21.0,101,1,5,2023,3,23,11,31
124.69850459997542,0.6881843999726556,image_pos,0.6220561000518501,bus,y,0.0,male,21.0,101,1,5,2023,3,23,11,31
134.6985096000135,0.6883653999539092,image_pos,0.4554739999584853,cash,y,0.0,male,21.0,101,1,5,2023,3,23,11,31
147.29852199996822,0.6885663000866771,image_pos,0.5391287000384182,cherry,y,0.0,male,21.0,101,1,5,2023,3,23,11,31
157.29888200003188,0.6882138999644667,image_pos,0.5553105999715626,television,y,0.0,male,21.0,101,1,5,2023,3,23,11,31
164.69880600005854,0.6883503999561071,image_pos,0.7221945999190211,penguin,y,0.0,male,21.0,101,1,5,2023,3,23,11,31
174.69894180004485,0.6882373999105766,image_neg,1.1387901999987662,ambulance,b,0.0,male,21.0,101,1,5,2023,3,23,11,31
187.29885569994804,0.6885050000855699,image_neg,0.4222230000887066,army,b,0.0,male,21.0,101,1,5,2023,3,23,11,31
197.29896769998595,0.6883368999697268,image_neg,0.6222203000215814,number,b,0.0,male,21.0,101,1,5,2023,3,23,11,31
207.2992968000472,0.6881506999488636,image_pos,0.6721517998958007,morning,y,0.0,male,21.0,101,1,5,2023,3,23,11,31
214.69918710005004,0.6884656999027641,image_neg,0.805552399950102,vice,b,0.0,male,21.0,101,1,5,2023,3,23,11,31
227.29908260004595,0.68852749990765,image_neg,0.7390646999701858,carrot,b,0.0,male,21.0,101,1,5,2023,3,23,11,31
234.6992844999768,0.6884470999939083,image_pos,0.8056434000609443,hairbrush,y,0.0,male,21.0,101,1,5,2023,3,23,11,31
244.6993507000152,0.6884544999338686,image_pos,0.6889370999997482,drum,y,0.0,male,21.0,101,1,5,2023,3,23,11,31
257.29909059999045,0.6887852000072598,image_neg,0.8061078999890015,cab,b,0.0,male,21.0,101,1,5,2023,3,23,11,31
264.6994370999746,0.6886327000102028,image_neg,0.9391002000775188,mosquito,b,0.0,male,21.0,101,1,5,2023,3,23,11,31
274.69953380001243,0.6884913999820128,image_neg,1.1390360000077635,dime,b,0.0,male,21.0,101,1,5,2023,3,23,11,31
284.699638399994,0.6885533999884501,image_pos,0.6890088999643922,peaceful,y,0.0,male,21.0,101,1,5,2023,3,23,11,31
294.6996615000535,0.6884871999500319,image_neg,0.7390478999586776,election,b,0.0,male,21.0,101,1,5,2023,3,23,11,31
307.3000626000576,0.688342399895248,image_pos,0.5220542999450117,tulip,y,0.0,male,21.0,101,1,5,2023,3,23,11,31
317.3000805999618,0.6882954000029713,image_pos,0.7056295000948012,tangerine,y,0.0,male,21.0,101,1,5,2023,3,23,11,31
327.3001242999453,0.6884082000469789,image_pos,0.6724097001133487,friendly,y,0.0,male,21.0,101,1,5,2023,3,23,11,31
334.7000046999892,0.6885584000265226,image_neg,0.6055621999548748,jealousy,b,0.0,male,21.0,101,1,5,2023,3,23,11,31
347.30003449996,0.6885150000452995,image_neg,0.7058267000829801,banker,b,0.0,male,21.0,101,1,5,2023,3,23,11,31
354.7002523000119,0.688492999994196,image_pos,0.7058678999310359,newspaper,y,0.0,male,21.0,101,1,5,2023,3,23,11,31
367.3005240999628,0.6882146000862122,image_neg,0.8055430999957025,mushroom,b,0.0,male,21.0,101,1,5,2023,3,23,11,31
374.70045530004427,0.6884501999011263,image_pos,0.6390120999421924,wit,y,0.0,male,21.0,101,1,5,2023,3,23,11,31
384.7003007000312,0.688683099928312,image_neg,0.5891091999365017,curse,b,0.0,male,21.0,101,1,5,2023,3,23,11,31
397.3004882000386,0.6886077999370741,image_pos,0.5724846000084653,applause,y,0.0,male,21.0,101,1,5,2023,3,23,11,31
404.700544900028,0.6886035000207471,image_neg,0.8058726999443024,ticket,b,0.0,male,21.0,101,1,5,2023,3,23,11,31
414.7009149000514,0.6883407999994802,image_pos,0.7554286998929456,tea,y,0.0,male,21.0,101,1,5,2023,3,23,11,31
424.7007876000134,0.6886069999309825,image_neg,0.6389418999897316,riot,b,0.0,male,21.0,101,1,5,2023,3,23,11,31
434.7009110000217,0.6885331999511095,image_neg,0.5223372000036761,dread,b,0.0,male,21.0,101,1,5,2023,3,23,11,31
447.301027999958,0.6885337000712752,image_neg,0.4889460999984294,screech,b,0.0,male,21.0,101,1,5,2023,3,23,11,31
454.7010837000562,0.6885451999260113,image_pos,0.3889337999280542,water,y,0.0,male,21.0,101,1,5,2023,3,23,11,31
467.30111130001023,0.688514000037685,image_neg,0.488900399999693,hierarchy,b,0.0,male,21.0,101,1,5,2023,3,23,11,31
477.301304499968,0.6885124000255018,image_pos,0.8391146999783814,engineer,y,0.0,male,21.0,101,1,5,2023,3,23,11,31
487.30099460005295,0.6887538000009954,image_neg,0.6392719999421388,whine,b,0.0,male,21.0,101,1,5,2023,3,23,11,31
494.7014412999852,0.6884775999932913,image_pos,0.7556917000329122,apricot,y,0.0,male,21.0,101,1,5,2023,3,23,11,31
507.301361800055,0.6886268999660388,image_neg,0.9558303999947384,desk,b,0.0,male,21.0,101,1,5,2023,3,23,11,31
514.701718700002,0.6882783999899402,image_pos,0.4388817000435665,intellect,y,0.0,male,21.0,101,1,5,2023,3,23,11,31
527.3016074999468,0.6886048000305891,image_pos,0.5056622000411153,clue,y,0.0,male,21.0,101,1,5,2023,3,23,11,31
537.3017493999796,0.6885520999785513,image_neg,0.6389136000070721,grief,b,0.0,male,21.0,101,1,5,2023,3,23,11,31
547.302116899984,0.6883424000116065,image_pos,0.6553784999996424,rum,y,0.0,male,21.0,101,1,5,2023,3,23,11,31
554.7017428999534,0.6886787000112236,image_neg,0.8225392000749707,editor,b,0.0,male,21.0,101,1,5,2023,3,23,11,31
564.7018637999427,0.6886468000011519,image_neg,0.7559965000255033,stapler,b,0.0,male,21.0,101,1,5,2023,3,23,11,31
577.3019752999535,0.6885594000341371,image_neg,0.572492300067097,mob,b,0.0,male,21.0,101,1,5,2023,3,23,11,31
584.7020820999751,0.6886620000004768,image_neg,0.7059369999915361,company,b,0.0,male,21.0,101,1,5,2023,3,23,11,31
594.7025382999564,0.68822310003452,image_pos,0.8055855000857264,spring,y,0.0,male,21.0,101,1,5,2023,3,23,11,31
0.9967297000112012,0.6889427000423891,word_neg,0.4199121999554336,dictation,b,0.0,male,21.0,101,1,5,2023,3,23,11,31
10.990127000026405,0.6957817999646068,word_neg,0.5367616999428719,dangerous,b,0.0,male,21.0,101,1,5,2023,3,23,11,31
20.987919999985024,0.6980530000291765,word_neu,0.5037918000016361,corn,y,0.0,male,21.0,101,1,5,2023,3,23,11,31
30.989485600031912,0.6964738999959081,word_pos,0.5554192999843508,theater,y,0.0,male,21.0,101,1,5,2023,3,23,11,31
40.98808379995171,0.698055800050497,word_neg,0.5057249999372289,ant,b,0.0,male,21.0,101,1,5,2023,3,23,11,31
50.98963480000384,0.6966137000126764,word_pos,0.5720226999837905,book,y,0.0,male,21.0,101,1,5,2023,3,23,11,31
60.98922939994373,0.6970233001047674,word_neu,0.9890720000257716,arm,b,0.0,male,21.0,101,1,5,2023,3,23,11,31
70.98836570000276,0.6980395000427961,word_pos,0.6720969000598416,bed,y,0.0,male,21.0,101,1,5,2023,3,23,11,31
80.98924000002444,0.6972484999569133,word_pos,0.688847600016743,awe,y,0.0,male,21.0,101,1,5,2023,3,23,11,31
90.9883313999744,0.6981978000840456,word_neg,0.7890572999604046,dead,b,0.0,male,21.0,101,1,5,2023,3,23,11,31
100.98924529994838,0.6973292001057416,word_neu,0.755842600017786,umbrella,b,0.0,male,21.0,101,1,5,2023,3,23,11,31
110.98907839995807,0.6975322000216835,word_neu,0.6389061000663787,mandolin,y,0.0,male,21.0,101,1,5,2023,3,23,11,31
120.9887374000391,0.6979854999808595,word_neu,0.6220561000518501,bus,y,0.0,male,21.0,101,1,5,2023,3,23,11,31
130.98891990003176,0.6979745000135154,word_pos,0.4554739999584853,cash,y,0.0,male,21.0,101,1,5,2023,3,23,11,31
140.99005410005338,0.696958199958317,word_pos,0.5391287000384182,cherry,y,0.0,male,21.0,101,1,5,2023,3,23,11,31
150.99089220003225,0.6961099000182003,word_pos,0.5553105999715626,television,y,0.0,male,21.0,101,1,5,2023,3,23,11,31
160.9901683999924,0.6968427000101656,word_pos,0.7221945999190211,penguin,y,0.0,male,21.0,101,1,5,2023,3,23,11,31
170.9897409999976,0.6974304000613927,word_neg,1.1387901999987662,ambulance,b,0.0,male,21.0,101,1,5,2023,3,23,11,31
180.9895947000477,0.6976985000074478,word_neg,0.4222230000887066,army,b,0.0,male,21.0,101,1,5,2023,3,23,11,31
190.98965360003052,0.6977083999663591,word_neu,0.6222203000215814,number,b,0.0,male,21.0,101,1,5,2023,3,23,11,31
200.9897251999937,0.6977465000236123,word_pos,0.6721517998958007,morning,y,0.0,male,21.0,101,1,5,2023,3,23,11,31
210.98943720001265,0.6981800999491838,word_neg,0.805552399950102,vice,b,0.0,male,21.0,101,1,5,2023,3,23,11,31
220.9897886000108,0.6978035999927954,word_neu,0.7390646999701858,carrot,b,0.0,male,21.0,101,1,5,2023,3,23,11,31
230.99015640001744,0.6974260000279173,word_neu,0.8056434000609443,hairbrush,y,0.0,male,21.0,101,1,5,2023,3,23,11,31
240.9900826000376,0.6975730999838561,word_pos,0.6889370999997482,drum,y,0.0,male,21.0,101,1,5,2023,3,23,11,31
250.99008889996912,0.6978243000339717,word_neg,0.8061078999890015,cab,b,0.0,male,21.0,101,1,5,2023,3,23,11,31
260.99183730001096,0.6961168999550864,word_neg,0.9391002000775188,mosquito,b,0.0,male,21.0,101,1,5,2023,3,23,11,31
270.99003300000913,0.6979573999997228,word_neu,1.1390360000077635,dime,b,0.0,male,21.0,101,1,5,2023,3,23,11,31
280.99152549996506,0.6966315000317991,word_pos,0.6890088999643922,peaceful,y,0.0,male,21.0,101,1,5,2023,3,23,11,31
290.99048359994777,0.6978382000234546,word_neg,0.7390478999586776,election,b,0.0,male,21.0,101,1,5,2023,3,23,11,31
300.99067740002647,0.6976648999843746,word_pos,0.5220542999450117,tulip,y,0.0,male,21.0,101,1,5,2023,3,23,11,31
310.9908783000428,0.6975142000010237,word_pos,0.7056295000948012,tangerine,y,0.0,male,21.0,101,1,5,2023,3,23,11,31
320.991119000013,0.6973523999331519,word_pos,0.6724097001133487,friendly,y,0.0,male,21.0,101,1,5,2023,3,23,11,31
330.99233120004646,0.6961445999331772,word_neg,0.6055621999548748,jealousy,b,0.0,male,21.0,101,1,5,2023,3,23,11,31
340.99080809997395,0.6978924999712035,word_neg,0.7058267000829801,banker,b,0.0,male,21.0,101,1,5,2023,3,23,11,31
350.9913264999632,0.6972973000956699,word_neu,0.7058678999310359,newspaper,y,0.0,male,21.0,101,1,5,2023,3,23,11,31
360.9912457000464,0.6975650999229401,word_neu,0.8055430999957025,mushroom,b,0.0,male,21.0,101,1,5,2023,3,23,11,31
370.99083450005855,0.6981198999565663,word_pos,0.6390120999421924,wit,y,0.0,male,21.0,101,1,5,2023,3,23,11,31
380.9910531999776,0.6978511000052094,word_neg,0.5891091999365017,curse,b,0.0,male,21.0,101,1,5,2023,3,23,11,31
390.9915757999988,0.6973505000350997,word_pos,0.5724846000084653,applause,y,0.0,male,21.0,101,1,5,2023,3,23,11,31
400.9913968000328,0.6976676000049338,word_neu,0.8058726999443024,ticket,b,0.0,male,21.0,101,1,5,2023,3,23,11,31
410.9911714999471,0.698040800052695,word_pos,0.7554286998929456,tea,y,0.0,male,21.0,101,1,5,2023,3,23,11,31
420.9914894000394,0.6978687999071553,word_neg,0.6389418999897316,riot,b,0.0,male,21.0,101,1,5,2023,3,23,11,31
430.9916416000342,0.6976505999919027,word_neg,0.5223372000036761,dread,b,0.0,male,21.0,101,1,5,2023,3,23,11,31
440.9917380999541,0.6977030000416562,word_neg,0.4889460999984294,screech,b,0.0,male,21.0,101,1,5,2023,3,23,11,31
450.9917107999791,0.69795629999129,word_pos,0.3889337999280542,water,y,0.0,male,21.0,101,1,5,2023,3,23,11,31
460.9920434999513,0.6976493000983623,word_neg,0.488900399999693,hierarchy,b,0.0,male,21.0,101,1,5,2023,3,23,11,31
470.9921918000328,0.6975801999215037,word_neu,0.8391146999783814,engineer,y,0.0,male,21.0,101,1,5,2023,3,23,11,31
480.9921120000072,0.6977000000188127,word_neg,0.6392719999421388,whine,b,0.0,male,21.0,101,1,5,2023,3,23,11,31
490.9921766000334,0.6976958999875933,word_neu,0.7556917000329122,apricot,y,0.0,male,21.0,101,1,5,2023,3,23,11,31
500.99183579999954,0.6981412000022829,word_neu,0.9558303999947384,desk,b,0.0,male,21.0,101,1,5,2023,3,23,11,31
510.9926697999472,0.6973976000444964,word_pos,0.4388817000435665,intellect,y,0.0,male,21.0,101,1,5,2023,3,23,11,31
520.9922049000161,0.697998599964194,word_neu,0.5056622000411153,clue,y,0.0,male,21.0,101,1,5,2023,3,23,11,31
530.9923415000085,0.697959000011906,word_neg,0.6389136000070721,grief,b,0.0,male,21.0,101,1,5,2023,3,23,11,31
540.9923912000377,0.6980195000069216,word_neu,0.6553784999996424,rum,y,0.0,male,21.0,101,1,5,2023,3,23,11,31
550.9929568000371,0.697450099978596,word_neu,0.8225392000749707,editor,b,0.0,male,21.0,101,1,5,2023,3,23,11,31
560.9927492999705,0.6977129000006244,word_neu,0.7559965000255033,stapler,b,0.0,male,21.0,101,1,5,2023,3,23,11,31
570.9925141000422,0.6980756999691948,word_neg,0.572492300067097,mob,b,0.0,male,21.0,101,1,5,2023,3,23,11,31
580.9930336000398,0.6976546999067068,word_neu,0.7059369999915361,company,b,0.0,male,21.0,101,1,5,2023,3,23,11,31
590.9929643999785,0.6977313000243157,word_pos,0.8055855000857264,spring,y,0.0,male,21.0,101,1,5,2023,3,23,11,31
7.299095000023954,0.6862138999858871,image_neg,0.669898199965246,business,b,0.0,male,21.0,101,1,2,2023,3,23,10,50
17.298856000066735,0.686475700000301,image_neg,0.6368613999802619,ricochet,b,0.0,male,21.0,101,1,2,2023,3,23,10,50
24.698992400080897,0.6862813999177924,image_pos,0.4202621999429539,vacation,y,0.0,male,21.0,101,1,2,2023,3,23,10,50
34.697643400053494,0.6877011000178754,image_neg,0.7217222999315709,nose,b,0.0,male,21.0,101,1,2,2023,3,23,10,50
47.297472600010224,0.6880115000531077,image_pos,0.4551766000222415,spaghetti,y,0.0,male,21.0,101,1,2,2023,3,23,10,50
57.2974913000362,0.6882205000147223,image_neg,0.7051888999994844,theory,b,0.0,male,21.0,101,1,2,2023,3,23,10,50
67.29748340009246,0.6881962999468669,image_pos,0.5220807999139652,joke,y,0.0,male,21.0,101,1,2,2023,3,23,10,50
77.29765279998537,0.6882034000009298,image_pos,0.5888916000258178,restaurant,y,0.0,male,21.0,101,1,2,2023,3,23,10,50
84.69754580000881,0.6883809000719339,image_neg,0.7721393000101671,hoe,b,0.0,male,21.0,101,1,2,2023,3,23,10,50
94.69759460003117,0.6883015000493913,image_pos,0.8221701000584289,musical,y,0.0,male,21.0,101,1,2,2023,3,23,10,50
104.698076800094,0.6879430999979235,image_pos,0.4883474999805912,optimism,y,0.0,male,21.0,101,1,2,2023,3,23,10,50
117.29770910006482,0.6883534999796979,image_pos,0.6389080999651924,luck,y,0.0,male,21.0,101,1,2,2023,3,23,10,50
127.29763660009483,0.6886725999647894,image_neg,0.7556436999002472,perjury,b,0.0,male,21.0,101,1,2,2023,3,23,10,50
137.29807530005928,0.6882317999843508,image_neg,0.6386201999848709,axe,b,0.0,male,21.0,101,1,2,2023,3,23,10,50
144.6980134000769,0.6883876000065356,image_neg,0.4888443999225274,lab,b,0.0,male,21.0,101,1,2,2023,3,23,10,50
154.6984853000613,0.6880067000165582,image_pos,0.721928899991326,power,y,0.0,male,21.0,101,1,2,2023,3,23,10,50
167.29818729998078,0.6883822000818043,image_pos,1.0557766000274569,attribute,y,0.0,male,21.0,101,1,2,2023,3,23,10,50
177.29895610001404,0.6877024000277743,image_pos,0.4215269000269472,day,y,0.0,male,21.0,101,1,2,2023,3,23,10,50
184.69845410005647,0.6882516000187309,image_pos,1.0221775999525562,speech,y,0.0,male,21.0,101,1,2,2023,3,23,10,50
194.69842490006704,0.6883999999845685,image_neg,0.9556206000270322,pan,b,0.0,male,21.0,101,1,2,2023,3,23,10,50
207.29836880008224,0.6885903999209688,image_neg,0.8558145000133663,angry,b,0.0,male,21.0,101,1,2,2023,3,23,10,50
214.69844559999183,0.6885969000868499,image_pos,0.4389721000334248,chicken,y,0.0,male,21.0,101,1,2,2023,3,23,10,50
227.29851190000767,0.6885714000091241,image_neg,0.3889883999945596,cough,b,0.0,male,21.0,101,1,2,2023,3,23,10,50
237.29887579998467,0.6882929001003788,image_pos,0.4889371000463143,artist,y,0.0,male,21.0,101,1,2,2023,3,23,10,50
244.69856170006096,0.6887179999612272,image_neg,0.5060886000283062,verb,b,0.0,male,21.0,101,1,2,2023,3,23,10,50
257.2987436000258,0.688556500012055,image_neg,0.7226471999892965,sick,b,0.0,male,21.0,101,1,2,2023,3,23,10,50
267.299118700088,0.6883230999810621,image_pos,0.6554463999345899,sailboat,y,0.0,male,21.0,101,1,2,2023,3,23,10,50
277.29894620005507,0.6885670999763533,image_neg,0.6723717999411747,store,b,0.0,male,21.0,101,1,2,2023,3,23,10,50
284.6994000000413,0.6882404000498923,image_pos,0.5887213000096381,monkey,y,0.0,male,21.0,101,1,2,2023,3,23,10,50
297.299391400069,0.6884673999156803,image_pos,0.6554830999812111,fireworks,y,0.0,male,21.0,101,1,2,2023,3,23,10,50
304.6993122000713,0.6883411000017077,image_pos,0.4389188999775797,street,y,0.0,male,21.0,101,1,2,2023,3,23,10,50
317.299307600013,0.6885487000690773,image_neg,0.755716499988921,apartment,b,0.0,male,21.0,101,1,2,2023,3,23,10,50
327.29932610003743,0.6886938000097871,image_neg,0.9057279999833554,eggplant,b,0.0,male,21.0,101,1,2,2023,3,23,10,50
334.70249260007404,0.6856399999232963,image_neg,0.652660199906677,whole,b,0.0,male,21.0,101,1,2,2023,3,23,10,50
344.7000733000459,0.6879683999577537,image_neg,0.5552086000097916,landslide,b,0.0,male,21.0,101,1,2,2023,3,23,10,50
354.6999848000705,0.6882226999150589,image_pos,0.605451799929142,winter,y,0.0,male,21.0,101,1,2,2023,3,23,10,50
367.2998749000253,0.6883127000182867,image_neg,0.440115200006403,jaw,b,0.0,male,21.0,101,1,2,2023,3,23,10,50
377.300470200018,0.6878982000052929,image_neg,0.4384276999626308,tired,b,0.0,male,21.0,101,1,2,2023,3,23,10,50
387.299851900083,0.688642599969171,image_neg,0.8224807999795303,plea,b,0.0,male,21.0,101,1,2,2023,3,23,10,50
394.7000252000289,0.6885418000165373,image_neg,0.6890401999698952,heavy,b,0.0,male,21.0,101,1,2,2023,3,23,10,50
404.7000566000352,0.6885628999443156,image_neg,0.5889204000122845,office,b,0.0,male,21.0,101,1,2,2023,3,23,10,50
414.7002829000121,0.6884174000006169,image_pos,0.705560400034301,highway,y,0.0,male,21.0,101,1,2,2023,3,23,10,50
424.7001728999894,0.6886011000024155,image_neg,0.4890239000087604,stone,b,0.0,male,21.0,101,1,2,2023,3,23,10,50
437.30039270001,0.6885135000339346,image_pos,0.4889597999863326,tree,y,0.0,male,21.0,101,1,2,2023,3,23,10,50
447.3004867000273,0.6884718000655994,image_neg,0.7725150999613106,asparagus,b,0.0,male,21.0,101,1,2,2023,3,23,10,50
457.3005141000031,0.6886149999917848,image_neg,0.5724404000211507,van,b,0.0,male,21.0,101,1,2,2023,3,23,10,50
467.30037260008976,0.6887997000012547,image_neg,0.7059790999628603,terrorist,b,0.0,male,21.0,101,1,2,2023,3,23,10,50
477.30106930003967,0.6880287999520078,image_pos,0.8219342000083998,barbecue,y,0.0,male,21.0,101,1,2,2023,3,23,10,50
484.7006684000371,0.6886999000561786,image_pos,0.6723992000333965,carnival,y,0.0,male,21.0,101,1,2,2023,3,23,10,50
494.7010399000719,0.688410299946554,image_pos,0.6889429999282584,knowledge,y,0.0,male,21.0,101,1,2,2023,3,23,10,50
507.3011886000168,0.6882777999852578,image_neg,0.722369399969466,excuse,b,0.0,male,21.0,101,1,2,2023,3,23,10,50
514.701048500021,0.6885181000689045,image_neg,0.5555228000739589,clang,b,0.0,male,21.0,101,1,2,2023,3,23,10,50
524.7010761999991,0.6886325000086799,image_pos,0.6557223000563681,embrace,y,0.0,male,21.0,101,1,2,2023,3,23,10,50
534.7011577000376,0.6885150000452995,image_pos,0.6390134999528527,toaster,y,0.0,male,21.0,101,1,2,2023,3,23,10,50
547.301395400078,0.6884342000121251,image_pos,0.5888917999109253,camel,y,0.0,male,21.0,101,1,2,2023,3,23,10,50
557.3015390000073,0.6882389000384137,image_pos,0.8220913000404835,piano,y,0.0,male,21.0,101,1,2,2023,3,23,10,50
567.3015358999837,0.6885710000060499,image_pos,0.4057320000138134,scissors,y,0.0,male,21.0,101,1,2,2023,3,23,10,50
574.7011605000589,0.6888482000213116,image_neg,0.8559857000363991,problem,b,0.0,male,21.0,101,1,2,2023,3,23,10,50
584.7015430000611,0.688659599982202,image_pos,0.5057797000044957,mercy,y,0.0,male,21.0,101,1,2,2023,3,23,10,50
594.7018581000157,0.6883649000665173,image_pos,0.488744999980554,summer,y,0.0,male,21.0,101,1,2,2023,3,23,10,50
0.9956511000636964,0.6894579000072557,word_neu,0.669898199965246,business,b,0.0,male,21.0,101,1,2,2023,3,23,10,50
10.989422200014817,0.6957928000483626,word_neg,0.6368613999802619,ricochet,b,0.0,male,21.0,101,1,2,2023,3,23,10,50
20.989652600022964,0.6956938999937847,word_pos,0.4202621999429539,vacation,y,0.0,male,21.0,101,1,2,2023,3,23,10,50
30.98762740008533,0.6977603998966515,word_neu,0.7217222999315709,nose,b,0.0,male,21.0,101,1,2,2023,3,23,10,50
40.98947770008817,0.696047499892309,word_pos,0.4551766000222415,spaghetti,y,0.0,male,21.0,101,1,2,2023,3,23,10,50
50.98871960001998,0.696799400029704,word_neu,0.7051888999994844,theory,b,0.0,male,21.0,101,1,2,2023,3,23,10,50
60.98990620009136,0.6957911999197606,word_pos,0.5220807999139652,joke,y,0.0,male,21.0,101,1,2,2023,3,23,10,50
70.98818700003903,0.6976626999676228,word_pos,0.5888916000258178,restaurant,y,0.0,male,21.0,101,1,2,2023,3,23,10,50
80.98800110002048,0.6978981000138447,word_neg,0.7721393000101671,hoe,b,0.0,male,21.0,101,1,2,2023,3,23,10,50
90.98931920004544,0.6966318000340834,word_pos,0.8221701000584289,musical,y,0.0,male,21.0,101,1,2,2023,3,23,10,50
100.98844380001538,0.6975558999693021,word_pos,0.4883474999805912,optimism,y,0.0,male,21.0,101,1,2,2023,3,23,10,50
110.98799400008284,0.6981983999721706,word_pos,0.6389080999651924,luck,y,0.0,male,21.0,101,1,2,2023,3,23,10,50
120.988353200024,0.6978596000699326,word_neg,0.7556436999002472,perjury,b,0.0,male,21.0,101,1,2,2023,3,23,10,50
130.98932930000592,0.696954800048843,word_neg,0.6386201999848709,axe,b,0.0,male,21.0,101,1,2,2023,3,23,10,50
140.9882334000431,0.6981361999642104,word_neg,0.4888443999225274,lab,b,0.0,male,21.0,101,1,2,2023,3,23,10,50
150.9895922000287,0.6967634999891743,word_neu,0.721928899991326,power,y,0.0,male,21.0,101,1,2,2023,3,23,10,50
160.98887540004216,0.6977045999374525,word_neu,1.0557766000274569,attribute,y,0.0,male,21.0,101,1,2,2023,3,23,10,50
170.98876049998216,0.6978584000607952,word_pos,0.4215269000269472,day,y,0.0,male,21.0,101,1,2,2023,3,23,10,50
180.9887534000445,0.6979792000493603,word_neu,1.0221775999525562,speech,y,0.0,male,21.0,101,1,2,2023,3,23,10,50
190.9885545000434,0.6982283999678032,word_neu,0.9556206000270322,pan,b,0.0,male,21.0,101,1,2,2023,3,23,10,50
200.9890194000909,0.6978988999035209,word_neg,0.8558145000133663,angry,b,0.0,male,21.0,101,1,2,2023,3,23,10,50
210.98924360005185,0.6976167999673635,word_pos,0.4389721000334248,chicken,y,0.0,male,21.0,101,1,2,2023,3,23,10,50
220.98943560000043,0.6976001000730605,word_neg,0.3889883999945596,cough,b,0.0,male,21.0,101,1,2,2023,3,23,10,50
230.9891367000528,0.6979783000423936,word_pos,0.4889371000463143,artist,y,0.0,male,21.0,101,1,2,2023,3,23,10,50
240.9892439000541,0.6980167999863909,word_neu,0.5060886000283062,verb,b,0.0,male,21.0,101,1,2,2023,3,23,10,50
250.9894893000601,0.6978333999868482,word_neg,0.7226471999892965,sick,b,0.0,male,21.0,101,1,2,2023,3,23,10,50
260.9898062000284,0.6975906000006944,word_pos,0.6554463999345899,sailboat,y,0.0,male,21.0,101,1,2,2023,3,23,10,50
270.98964260006323,0.6978406999260187,word_neu,0.6723717999411747,store,b,0.0,male,21.0,101,1,2,2023,3,23,10,50
280.9900510000298,0.6976107000373304,word_neu,0.5887213000096381,monkey,y,0.0,male,21.0,101,1,2,2023,3,23,10,50
290.9912359000882,0.6964019999140874,word_pos,0.6554830999812111,fireworks,y,0.0,male,21.0,101,1,2,2023,3,23,10,50
300.9899496000726,0.6978129999479279,word_neu,0.4389188999775797,street,y,0.0,male,21.0,101,1,2,2023,3,23,10,50
310.9901852000039,0.6976969999959692,word_neu,0.755716499988921,apartment,b,0.0,male,21.0,101,1,2,2023,3,23,10,50
320.99043850007,0.6974313999526203,word_neu,0.9057279999833554,eggplant,b,0.0,male,21.0,101,1,2,2023,3,23,10,50
330.99020790006034,0.6977365999482572,word_neu,0.652660199906677,whole,b,0.0,male,21.0,101,1,2,2023,3,23,10,50
340.9905995000154,0.6976118000457063,word_neg,0.5552086000097916,landslide,b,0.0,male,21.0,101,1,2,2023,3,23,10,50
350.99032560002524,0.6979198000626639,word_neu,0.605451799929142,winter,y,0.0,male,21.0,101,1,2,2023,3,23,10,50
360.9903074000031,0.6979201000649482,word_neg,0.440115200006403,jaw,b,0.0,male,21.0,101,1,2,2023,3,23,10,50
370.9906353000552,0.6977512999437181,word_neg,0.4384276999626308,tired,b,0.0,male,21.0,101,1,2,2023,3,23,10,50
380.9903113000328,0.6980543000391322,word_neg,0.8224807999795303,plea,b,0.0,male,21.0,101,1,2,2023,3,23,10,50
390.99107170000207,0.6975149000063539,word_neg,0.6890401999698952,heavy,b,0.0,male,21.0,101,1,2,2023,3,23,10,50
400.9908788000466,0.6976726000430062,word_neg,0.5889204000122845,office,b,0.0,male,21.0,101,1,2,2023,3,23,10,50
410.99089740007184,0.6977884999942603,word_neu,0.705560400034301,highway,y,0.0,male,21.0,101,1,2,2023,3,23,10,50
420.990836400073,0.6979270000010729,word_neg,0.4890239000087604,stone,b,0.0,male,21.0,101,1,2,2023,3,23,10,50
430.991000900045,0.6978653999977382,word_pos,0.4889597999863326,tree,y,0.0,male,21.0,101,1,2,2023,3,23,10,50
440.9913431000896,0.6975868999725208,word_neu,0.7725150999613106,asparagus,b,0.0,male,21.0,101,1,2,2023,3,23,10,50
450.99113830004353,0.6978758999612751,word_neg,0.5724404000211507,van,b,0.0,male,21.0,101,1,2,2023,3,23,10,50
460.9914920000592,0.6976334999780534,word_neg,0.7059790999628603,terrorist,b,0.0,male,21.0,101,1,2,2023,3,23,10,50
470.9914438000415,0.6978236000285847,word_pos,0.8219342000083998,barbecue,y,0.0,male,21.0,101,1,2,2023,3,23,10,50
480.991748200031,0.6975602000019876,word_pos,0.6723992000333965,carnival,y,0.0,male,21.0,101,1,2,2023,3,23,10,50
490.9919691000832,0.6975165999028832,word_pos,0.6889429999282584,knowledge,y,0.0,male,21.0,101,1,2,2023,3,23,10,50
500.9917490000371,0.697669400018583,word_neg,0.722369399969466,excuse,b,0.0,male,21.0,101,1,2,2023,3,23,10,50
510.99172450008336,0.6978643999900669,word_neg,0.5555228000739589,clang,b,0.0,male,21.0,101,1,2,2023,3,23,10,50
520.9919486000435,0.69766319997143,word_pos,0.6557223000563681,embrace,y,0.0,male,21.0,101,1,2,2023,3,23,10,50
530.991933500045,0.6977253999793902,word_neu,0.6390134999528527,toaster,y,0.0,male,21.0,101,1,2,2023,3,23,10,50
540.9918763000751,0.6978443999541923,word_neu,0.5888917999109253,camel,y,0.0,male,21.0,101,1,2,2023,3,23,10,50
550.99205910007,0.6978438999503851,word_pos,0.8220913000404835,piano,y,0.0,male,21.0,101,1,2,2023,3,23,10,50
560.9924929999979,0.6973978000460193,word_neu,0.4057320000138134,scissors,y,0.0,male,21.0,101,1,2,2023,3,23,10,50
570.9923267000122,0.6976909000659361,word_neg,0.8559857000363991,problem,b,0.0,male,21.0,101,1,2,2023,3,23,10,50
580.9923827000894,0.697773199994117,word_pos,0.5057797000044957,mercy,y,0.0,male,21.0,101,1,2,2023,3,23,10,50
590.9924296999816,0.6976137000601739,word_pos,0.488744999980554,summer,y,0.0,male,21.0,101,1,2,2023,3,23,10,50
4.688787500024773,0.686288999975659,image_pos,0.8368250000057742,party,y,0.0,male,21.0,101,1,6,2023,3,23,11,42
17.288898200029507,0.6862784000113606,image_pos,0.6534453000640497,medicine,y,0.0,male,21.0,101,1,6,2023,3,23,11,42
27.288318200036883,0.6870736000128055,image_neg,0.7541827999521047,fee,b,0.0,male,21.0,101,1,6,2023,3,23,11,42
37.28710110008251,0.6883521999698132,image_pos,0.6222096999408677,pumpkin,y,0.0,male,21.0,101,1,6,2023,3,23,11,42
47.286990700056776,0.6884513000259105,image_pos,0.7889745000284165,era,y,0.0,male,21.0,101,1,6,2023,3,23,11,42
54.68692110001575,0.6885905000381172,image_neg,0.8224970999872312,advice,b,0.0,male,21.0,101,1,6,2023,3,23,11,42
64.68710320000537,0.6885633000638336,image_neg,0.5389646000694484,old,b,0.0,male,21.0,101,1,6,2023,3,23,11,42
74.6872110000113,0.6885013000573963,image_pos,0.6388162000803277,chocolate,y,0.0,male,21.0,101,1,6,2023,3,23,11,42
87.28745450009592,0.688408299931325,image_pos,0.5554567999206483,hygiene,y,0.0,male,21.0,101,1,6,2023,3,23,11,42
94.68727610004134,0.6886186000192538,image_neg,0.5890261000022292,finger,b,0.0,male,21.0,101,1,6,2023,3,23,11,42
104.6873251000652,0.6886091999476918,image_neg,0.5057233999250457,law,b,0.0,male,21.0,101,1,6,2023,3,23,11,42
114.68742830003612,0.6886086000595242,image_neg,0.6391172000439838,mayor,b,0.0,male,21.0,101,1,6,2023,3,23,11,42
124.6877427001018,0.6883871998870887,image_pos,0.7056101999478415,satire,y,0.0,male,21.0,101,1,6,2023,3,23,11,42
134.68776800006162,0.68839999998454,image_pos,0.6721610999666154,dinner,y,0.0,male,21.0,101,1,6,2023,3,23,11,42
147.28812460007612,0.6881734000053257,image_pos,0.6223195999627933,river,y,0.0,male,21.0,101,1,6,2023,3,23,11,42
157.2880088000093,0.688361600041361,image_neg,0.4388604999985546,prison,b,0.0,male,21.0,101,1,6,2023,3,23,11,42
167.28786320006475,0.6886187000200152,image_neg,0.6558132999343798,rake,b,0.0,male,21.0,101,1,6,2023,3,23,11,42
177.2889290000312,0.6876973999897018,image_pos,0.4547609000001102,handshake,y,0.0,male,21.0,101,1,6,2023,3,23,11,42
184.68828080000824,0.6883591000223248,image_pos,0.6721326999831945,parade,y,0.0,male,21.0,101,1,6,2023,3,23,11,42
194.6883854999905,0.688378400052926,image_pos,0.6555991000495851,comb,y,0.0,male,21.0,101,1,6,2023,3,23,11,42
207.28863570000976,0.6881509000668302,image_neg,0.805348000023514,quantity,b,0.0,male,21.0,101,1,6,2023,3,23,11,42
217.28848940005992,0.6884343000128865,image_pos,0.622175500029698,blueberry,y,0.0,male,21.0,101,1,6,2023,3,23,11,42
227.2883915000129,0.6885635000653849,image_neg,0.8558413999853656,judge,y,0.0,male,21.0,101,1,6,2023,3,23,11,42
234.68824779998977,0.6887284000403895,image_neg,0.6058811000548303,protest,b,0.0,male,21.0,101,1,6,2023,3,23,11,42
247.28873530006967,0.688385899993591,image_pos,0.7222053000004962,cheese,y,0.0,male,21.0,101,1,6,2023,3,23,11,42
257.2887981000822,0.6884704999392852,image_pos,0.8055528999539092,home,y,0.0,male,21.0,101,1,6,2023,3,23,11,42
267.28887610009406,0.6885870998958126,image_neg,0.6058060999494046,church,b,0.0,male,21.0,101,1,6,2023,3,23,11,42
274.6888756999979,0.6884419000707567,image_pos,0.8223096000729129,sun,y,0.0,male,21.0,101,1,6,2023,3,23,11,42
284.6887949000811,0.6886343999067321,image_neg,0.6891289999475703,table,b,0.0,male,21.0,101,1,6,2023,3,23,11,42
297.28902750008274,0.6885543999960646,image_neg,0.6723291999660432,funeral,b,0.0,male,21.0,101,1,6,2023,3,23,11,42
307.2892240000656,0.6884673000313342,image_neg,0.6389594000065699,guilt,b,0.0,male,21.0,101,1,6,2023,3,23,11,42
314.6893252000445,0.6884982000338482,image_pos,0.6054972000420094,chipmunk,y,0.0,male,21.0,101,1,6,2023,3,23,11,42
324.68908820010256,0.6887288999278667,image_neg,0.5224843999603763,lost,b,0.0,male,21.0,101,1,6,2023,3,23,11,42
337.2894114000956,0.6885312999365283,image_neg,0.6722969999536872,bugle,b,0.0,male,21.0,101,1,6,2023,3,23,11,42
344.68940130004194,0.6885327999480069,image_neg,0.6223282000282779,big,b,0.0,male,21.0,101,1,6,2023,3,23,11,42
357.2892882000888,0.6888057999312878,image_neg,0.6390953999944031,chair,b,0.0,male,21.0,101,1,6,2023,3,23,11,42
367.2895365000004,0.6886248000664636,image_pos,0.63907030003611,camera,y,0.0,male,21.0,101,1,6,2023,3,23,11,42
374.6895627999911,0.688662900007273,image_pos,0.6057609000708908,soccer,y,0.0,male,21.0,101,1,6,2023,3,23,11,42
384.6900193000911,0.6882743999594823,image_pos,0.6220104999374598,girl,y,0.0,male,21.0,101,1,6,2023,3,23,11,42
397.2904948000796,0.6879367999499664,image_pos,0.6716595999896526,role,y,0.0,male,21.0,101,1,6,2023,3,23,11,42
404.6897900000913,0.6886509999167174,image_neg,0.7723943999735638,politician,b,0.0,male,21.0,101,1,6,2023,3,23,11,42
417.2899663000135,0.68844420008827,image_neg,0.588998100021854,crow,b,0.0,male,21.0,101,1,6,2023,3,23,11,42
427.2902093000012,0.6884522000327138,image_neg,0.6722292000195011,woe,b,0.0,male,21.0,101,1,6,2023,3,23,11,42
434.6901605000021,0.6885376999853179,image_pos,0.7058498000260442,read,y,0.0,male,21.0,101,1,6,2023,3,23,11,42
444.69029180007055,0.6885350999655202,image_neg,0.5555196999339387,sin,b,0.0,male,21.0,101,1,6,2023,3,23,11,42
454.6904757000739,0.6884132999693975,image_neg,0.7389075999381021,escalator,b,0.0,male,21.0,101,1,6,2023,3,23,11,42
464.69032410008367,0.6886184000177309,image_pos,0.5057474999921396,elm,y,0.0,male,21.0,101,1,6,2023,3,23,11,42
477.290316700004,0.6887761000544401,image_neg,0.6558456000639126,gunshot,b,0.0,male,21.0,101,1,6,2023,3,23,11,42
487.29062720004,0.6885416000151281,image_neg,0.4722830000100657,lawyer,b,0.0,male,21.0,101,1,6,2023,3,23,11,42
494.6906276000664,0.6885623999404515,image_neg,0.6890633000293747,folly,b,0.0,male,21.0,101,1,6,2023,3,23,11,42
504.6906960000051,0.6885859000030905,image_pos,0.689071600092575,dolphin,y,0.0,male,21.0,101,1,6,2023,3,23,11,42
514.6907783000497,0.6886023000115529,image_neg,0.7059953999705613,audience,b,0.0,male,21.0,101,1,6,2023,3,23,11,42
524.6909492000705,0.6884966000216082,image_pos,0.9222672999603674,scooter,y,0.0,male,21.0,101,1,6,2023,3,23,11,42
537.291095499997,0.688487600069493,image_pos,0.7722618000116199,prairie,y,0.0,male,21.0,101,1,6,2023,3,23,11,42
544.6908932999941,0.6888438001042232,image_neg,0.6893277000635862,bee,b,0.0,male,21.0,101,1,6,2023,3,23,11,42
557.2912558000535,0.6884392999345437,image_pos,0.6389842999633402,forest,y,0.0,male,21.0,101,1,6,2023,3,23,11,42
564.6913801000919,0.6883805999532342,image_pos,0.5054637999273837,accordion,y,0.0,male,21.0,101,1,6,2023,3,23,11,42
577.2914838000434,0.6885240999981761,image_pos,0.7224045000039041,honeymoon,y,0.0,male,21.0,101,1,6,2023,3,23,11,42
587.2912584000733,0.6888724999735132,image_neg,0.4557514999760315,rumor,b,0.0,male,21.0,101,1,6,2023,3,23,11,42
594.6914568000939,0.6886045999126509,image_neg,0.8057251999853179,analogy,b,0.0,male,21.0,101,1,6,2023,3,23,11,42
0.9852310999995098,0.6898883000249043,word_pos,0.8368250000057742,party,y,0.0,male,21.0,101,1,6,2023,3,23,11,42
10.979927400010638,0.6953111999901029,word_neu,0.6534453000640497,medicine,y,0.0,male,21.0,101,1,6,2023,3,23,11,42
20.97824720002245,0.6969863000558689,word_neg,0.7541827999521047,fee,b,0.0,male,21.0,101,1,6,2023,3,23,11,42
30.979079300072044,0.6962020000210032,word_pos,0.6222096999408677,pumpkin,y,0.0,male,21.0,101,1,6,2023,3,23,11,42
40.977346100029536,0.698111500008963,word_neu,0.7889745000284165,era,y,0.0,male,21.0,101,1,6,2023,3,23,11,42
50.97930240002461,0.6962128999875858,word_neu,0.8224970999872312,advice,b,0.0,male,21.0,101,1,6,2023,3,23,11,42
60.97753780009225,0.6982017999980599,word_neg,0.5389646000694484,old,b,0.0,male,21.0,101,1,6,2023,3,23,11,42
70.9790398000041,0.69667129998561,word_pos,0.6388162000803277,chocolate,y,0.0,male,21.0,101,1,6,2023,3,23,11,42
80.9789063000353,0.6968075999757275,word_pos,0.5554567999206483,hygiene,y,0.0,male,21.0,101,1,6,2023,3,23,11,42
90.97844110010192,0.6975074999500066,word_neu,0.5890261000022292,finger,b,0.0,male,21.0,101,1,6,2023,3,23,11,42
100.97888850001618,0.6969471999909729,word_neg,0.5057233999250457,law,b,0.0,male,21.0,101,1,6,2023,3,23,11,42
110.97809900005814,0.6979241999797381,word_neg,0.6391172000439838,mayor,b,0.0,male,21.0,101,1,6,2023,3,23,11,42
120.97917350009084,0.6969620999879993,word_neu,0.7056101999478415,satire,y,0.0,male,21.0,101,1,6,2023,3,23,11,42
130.97848300007172,0.6976265999255702,word_pos,0.6721610999666154,dinner,y,0.0,male,21.0,101,1,6,2023,3,23,11,42
140.9783676000079,0.697879399987869,word_pos,0.6223195999627933,river,y,0.0,male,21.0,101,1,6,2023,3,23,11,42
150.97862000006717,0.6977420999901369,word_neg,0.4388604999985546,prison,b,0.0,male,21.0,101,1,6,2023,3,23,11,42
160.97854340006597,0.6978756999596953,word_neg,0.6558132999343798,rake,b,0.0,male,21.0,101,1,6,2023,3,23,11,42
170.97917890001554,0.6973305999999866,word_pos,0.4547609000001102,handshake,y,0.0,male,21.0,101,1,6,2023,3,23,11,42
180.97873730002905,0.6978072000201507,word_pos,0.6721326999831945,parade,y,0.0,male,21.0,101,1,6,2023,3,23,11,42
190.97970780008475,0.6969964000163316,word_neu,0.6555991000495851,comb,y,0.0,male,21.0,101,1,6,2023,3,23,11,42
200.9805520999944,0.6962421000934853,word_neu,0.805348000023514,quantity,b,0.0,male,21.0,101,1,6,2023,3,23,11,42
210.97928410000168,0.697604699991615,word_pos,0.622175500029698,blueberry,y,0.0,male,21.0,101,1,6,2023,3,23,11,42
220.98046660004184,0.6963567000348121,word_neg,0.8558413999853656,judge,y,0.0,male,21.0,101,1,6,2023,3,23,11,42
230.97928630001843,0.6976877000415698,word_neg,0.6058811000548303,protest,b,0.0,male,21.0,101,1,6,2023,3,23,11,42
240.9794564000331,0.6976678000064851,word_pos,0.7222053000004962,cheese,y,0.0,male,21.0,101,1,6,2023,3,23,11,42
250.9790988999885,0.6980927000986128,word_pos,0.8055528999539092,home,y,0.0,male,21.0,101,1,6,2023,3,23,11,42
260.9795483000344,0.6977067999541191,word_neu,0.6058060999494046,church,b,0.0,male,21.0,101,1,6,2023,3,23,11,42
270.9791728000855,0.6980725999455899,word_pos,0.8223096000729129,sun,y,0.0,male,21.0,101,1,6,2023,3,23,11,42
280.9798584000673,0.69752879999578,word_neu,0.6891289999475703,table,b,0.0,male,21.0,101,1,6,2023,3,23,11,42
290.97982260002755,0.6977422999916598,word_neg,0.6723291999660432,funeral,b,0.0,male,21.0,101,1,6,2023,3,23,11,42
300.97984610009007,0.697766299941577,word_neg,0.6389594000065699,guilt,b,0.0,male,21.0,101,1,6,2023,3,23,11,42
310.98008100001607,0.6975930000189692,word_pos,0.6054972000420094,chipmunk,y,0.0,male,21.0,101,1,6,2023,3,23,11,42
320.9798487999942,0.6979351000627503,word_neg,0.5224843999603763,lost,b,0.0,male,21.0,101,1,6,2023,3,23,11,42
330.9800207000226,0.6978763000806794,word_neu,0.6722969999536872,bugle,b,0.0,male,21.0,101,1,6,2023,3,23,11,42
340.9798928000964,0.6980348998913541,word_neu,0.6223282000282779,big,b,0.0,male,21.0,101,1,6,2023,3,23,11,42
350.9802630000049,0.6976927000796422,word_neu,0.6390953999944031,chair,b,0.0,male,21.0,101,1,6,2023,3,23,11,42
360.9802559000673,0.6978627999779405,word_pos,0.63907030003611,camera,y,0.0,male,21.0,101,1,6,2023,3,23,11,42
370.9803798000794,0.697779499925673,word_neu,0.6057609000708908,soccer,y,0.0,male,21.0,101,1,6,2023,3,23,11,42
380.9803169000661,0.6979470999212936,word_pos,0.6220104999374598,girl,y,0.0,male,21.0,101,1,6,2023,3,23,11,42
390.98033930000383,0.6980901000788435,word_neu,0.6716595999896526,role,y,0.0,male,21.0,101,1,6,2023,3,23,11,42
400.98121270001866,0.6972080999985337,word_neg,0.7723943999735638,politician,b,0.0,male,21.0,101,1,6,2023,3,23,11,42
410.98056100006215,0.6978347999975085,word_neg,0.588998100021854,crow,b,0.0,male,21.0,101,1,6,2023,3,23,11,42
420.98056540009566,0.6980182999977842,word_neg,0.6722292000195011,woe,b,0.0,male,21.0,101,1,6,2023,3,23,11,42
430.9805591000477,0.6981031999458196,word_pos,0.7058498000260442,read,y,0.0,male,21.0,101,1,6,2023,3,23,11,42
440.98075350001454,0.6979598000179408,word_neg,0.5555196999339387,sin,b,0.0,male,21.0,101,1,6,2023,3,23,11,42
450.9813779999968,0.6974452000576434,word_neu,0.7389075999381021,escalator,b,0.0,male,21.0,101,1,6,2023,3,23,11,42
460.9809464000864,0.6979781999252737,word_pos,0.5057474999921396,elm,y,0.0,male,21.0,101,1,6,2023,3,23,11,42
470.9812886000145,0.6977038000478046,word_neg,0.6558456000639126,gunshot,b,0.0,male,21.0,101,1,6,2023,3,23,11,42
480.98145409999415,0.6976348001044244,word_neg,0.4722830000100657,lawyer,b,0.0,male,21.0,101,1,6,2023,3,23,11,42
490.98118630005047,0.6979969999520108,word_neg,0.6890633000293747,folly,b,0.0,male,21.0,101,1,6,2023,3,23,11,42
500.9814536999911,0.6978475000942126,word_pos,0.689071600092575,dolphin,y,0.0,male,21.0,101,1,6,2023,3,23,11,42
510.9817944000242,0.6975606000050902,word_neu,0.7059953999705613,audience,b,0.0,male,21.0,101,1,6,2023,3,23,11,42
520.9818492000923,0.6975489999167621,word_neu,0.9222672999603674,scooter,y,0.0,male,21.0,101,1,6,2023,3,23,11,42
530.9818126000464,0.6976959999883547,word_neu,0.7722618000116199,prairie,y,0.0,male,21.0,101,1,6,2023,3,23,11,42
540.9815906001022,0.6980375999119133,word_neg,0.6893277000635862,bee,b,0.0,male,21.0,101,1,6,2023,3,23,11,42
550.9818846000126,0.6978296000743285,word_pos,0.6389842999633402,forest,y,0.0,male,21.0,101,1,6,2023,3,23,11,42
560.9823339000577,0.697474000044167,word_neu,0.5054637999273837,accordion,y,0.0,male,21.0,101,1,6,2023,3,23,11,42
570.9822232000297,0.6976572000421584,word_pos,0.7224045000039041,honeymoon,y,0.0,male,21.0,101,1,6,2023,3,23,11,42
580.9821486000437,0.6978113000513986,word_neg,0.4557514999760315,rumor,b,0.0,male,21.0,101,1,6,2023,3,23,11,42
590.9823097999906,0.6977182000409812,word_neu,0.8057251999853179,analogy,b,0.0,male,21.0,101,1,6,2023,3,23,11,42
4.700264999992214,0.6862536000553519,image_pos,0.4200124000199139,trust,y,0.0,male,21.0,101,1,4,2023,3,23,11,20
17.29965030006133,0.6869292999617755,image_neg,0.6540017999941483,insult,b,0.0,male,21.0,101,1,4,2023,3,23,11,20
24.699933600029908,0.686632200027816,image_pos,0.4538241999689489,honey,y,0.0,male,21.0,101,1,4,2023,3,23,11,20
34.69803069997579,0.688568799989298,image_neg,0.4557291000382975,loan,b,0.0,male,21.0,101,1,4,2023,3,23,11,20
44.69811060000211,0.6886844000546262,image_neg,0.6891666000010446,door,b,0.0,male,21.0,101,1,4,2023,3,23,11,20
54.69818579999264,0.6887162000639364,image_neg,0.7058928000042215,battle,b,0.0,male,21.0,101,1,4,2023,3,23,11,20
67.2984566000523,0.6885473999427631,image_pos,0.7223565999884158,bicycle,y,0.0,male,21.0,101,1,4,2023,3,23,11,20
77.29842320003081,0.6886270999675617,image_neg,0.4726492000045255,fallacy,b,0.0,male,21.0,101,1,4,2023,3,23,11,20
87.29882859997451,0.6883111000061035,image_pos,0.9388338000280784,lust,y,0.0,male,21.0,101,1,4,2023,3,23,11,20
97.29862739995588,0.6886837000492818,image_neg,0.6891437000595033,journalist,b,0.0,male,21.0,101,1,4,2023,3,23,11,20
104.6987483999692,0.6885810000821948,image_neg,0.6057340999832377,saw,b,0.0,male,21.0,101,1,4,2023,3,23,11,20
114.69869190000465,0.6886661000316678,image_neg,0.589107200037688,businessman,b,0.0,male,21.0,101,1,4,2023,3,23,11,20
127.29904419998638,0.688531600055299,image_neg,0.672235400066711,boy,b,0.0,male,21.0,101,1,4,2023,3,23,11,20
134.6989617999643,0.6886479000095278,image_pos,0.9058393000159412,gratitude,y,0.0,male,21.0,101,1,4,2023,3,23,11,20
144.69945930002723,0.6881964999483898,image_pos,0.7887303000316024,parent,y,0.0,male,21.0,101,1,4,2023,3,23,11,20
154.69933169998694,0.6884378000395373,image_neg,0.6388092000270262,guard,b,0.0,male,21.0,101,1,4,2023,3,23,11,20
164.69891519995872,0.6889731000410393,image_neg,0.7560167000629008,shoulder,b,0.0,male,21.0,101,1,4,2023,3,23,11,20
177.29900620004628,0.688939799903892,image_neg,0.656096399994567,denial,b,0.0,male,21.0,101,1,4,2023,3,23,11,20
187.2995669000084,0.6884367000311329,image_neg,0.5223752999445423,snake,b,0.0,male,21.0,101,1,4,2023,3,23,11,20
194.6997339000227,0.6883166999323578,image_pos,1.1389391999691725,circus,y,0.0,male,21.0,101,1,4,2023,3,23,11,20
204.6995410999516,0.6886938000097871,image_neg,0.7891517000971362,expensive,b,0.0,male,21.0,101,1,4,2023,3,23,11,20
214.69966270006265,0.6885496999602481,image_neg,0.6723289999645203,team,b,0.0,male,21.0,101,1,4,2023,3,23,11,20
227.29971519997343,0.6885532999876887,image_pos,0.5058099000016227,harmonica,y,0.0,male,21.0,101,1,4,2023,3,23,11,20
234.6998657999793,0.688626000075601,image_pos,0.6395946000702679,kitchen,y,0.0,male,21.0,101,1,4,2023,3,23,11,20
244.69972080003936,0.688789099920541,image_neg,0.7227829999756068,worker,b,0.0,male,21.0,101,1,4,2023,3,23,11,20
257.29981120000593,0.6887694000033662,image_neg,0.6892625000327826,theme,b,0.0,male,21.0,101,1,4,2023,3,23,11,20
264.69987530005164,0.6888397999573499,image_neg,0.4892084999009967,scream,b,0.0,male,21.0,101,1,4,2023,3,23,11,20
274.7001889999956,0.6886029000161216,image_pos,0.7057788000674918,peace,y,0.0,male,21.0,101,1,4,2023,3,23,11,20
287.30016380001325,0.688739400007762,image_neg,0.672500399989076,court,b,0.0,male,21.0,101,1,4,2023,3,23,11,20
294.70049880002625,0.6884061000309885,image_pos,0.4888359999749809,dog,y,0.0,male,21.0,101,1,4,2023,3,23,11,20
304.7001092999708,0.6889141000574455,image_neg,0.5893475000048056,torment,b,0.0,male,21.0,101,1,4,2023,3,23,11,20
314.70055079995655,0.6885097000049427,image_pos,0.8390833000885323,truce,y,0.0,male,21.0,101,1,4,2023,3,23,11,20
327.3005574999843,0.6886233000550419,image_pos,0.6391154000302777,bread,y,0.0,male,21.0,101,1,4,2023,3,23,11,20
334.7005536999786,0.6887143000494689,image_pos,0.6224642000161111,banjo,y,0.0,male,21.0,101,1,4,2023,3,23,11,20
347.3006192999892,0.6887732000323012,image_neg,0.7894010000163689,zone,b,0.0,male,21.0,101,1,4,2023,3,23,11,20
354.70107209996786,0.6884117000736296,image_neg,0.6889622000744566,pig,b,0.0,male,21.0,101,1,4,2023,3,23,11,20
367.3123268999625,0.6772228000918972,image_pos,0.6946357000852004,choir,y,0.0,male,21.0,101,1,4,2023,3,23,11,20
374.70126650005113,0.688447599997744,image_pos,0.7722119999816641,festival,y,0.0,male,21.0,101,1,4,2023,3,23,11,20
384.7012358000502,0.6883752999128774,image_neg,0.7556754999095574,bell,b,0.0,male,21.0,101,1,4,2023,3,23,11,20
397.3012529000407,0.6886120999697596,image_neg,0.5389861000003293,stampede,b,0.0,male,21.0,101,1,4,2023,3,23,11,20
404.70136860001367,0.6886408999562263,image_neg,0.7225261999992654,put,b,0.0,male,21.0,101,1,4,2023,3,23,11,20
417.3013040999649,0.688660699990578,image_neg,0.7557947000022978,baseball,b,0.0,male,21.0,101,1,4,2023,3,23,11,20
427.301386600011,0.6885304000461474,image_neg,0.6390652999980375,red,b,0.0,male,21.0,101,1,4,2023,3,23,11,20
434.7014477000339,0.6887249000137672,image_neg,0.672324699931778,mouth,b,0.0,male,21.0,101,1,4,2023,3,23,11,20
444.7013890000526,0.6888015998993069,image_neg,0.9227238999446854,flood,b,0.0,male,21.0,101,1,4,2023,3,23,11,20
454.7015907999594,0.6887116000289097,image_neg,0.8059326000511646,animosity,b,0.0,male,21.0,101,1,4,2023,3,23,11,20
467.30170890002046,0.6886389999417588,image_pos,1.222507999977097,bay,y,0.0,male,21.0,101,1,4,2023,3,23,11,20
474.7019830000354,0.6885216999799013,image_pos,0.9389303999487312,scientist,y,0.0,male,21.0,101,1,4,2023,3,23,11,20
487.3021036999999,0.6884412000653697,image_neg,0.6722097999881953,elevator,b,0.0,male,21.0,101,1,4,2023,3,23,11,20
497.3021069000242,0.6886534999357536,image_neg,0.939067899947986,hall,b,0.0,male,21.0,101,1,4,2023,3,23,11,20
504.7020591000328,0.6886902999831364,image_neg,0.689168700017035,explosion,b,0.0,male,21.0,101,1,4,2023,3,23,11,20
514.7024563000305,0.6882265999447554,image_pos,0.5554490999784321,flower,y,0.0,male,21.0,101,1,4,2023,3,23,11,20
527.302613100037,0.6883869000012055,image_pos,0.5390096999472007,chestnut,y,0.0,male,21.0,101,1,4,2023,3,23,11,20
534.7022189999698,0.6887368999887258,image_neg,0.7725288000656292,empty,b,0.0,male,21.0,101,1,4,2023,3,23,11,20
544.7024058999959,0.6886893999762833,image_pos,0.7226578999543563,heroism,b,1.0,male,21.0,101,1,4,2023,3,23,11,20
554.7027478000382,0.6883758999174461,image_pos,0.6221194999525324,hand,y,0.0,male,21.0,101,1,4,2023,3,23,11,20
564.7026622999692,0.688630299991928,image_neg,0.6891142000677064,accident,b,0.0,male,21.0,101,1,4,2023,3,23,11,20
577.3026765000541,0.6886239999439567,image_neg,0.7061218000017107,majority,b,0.0,male,21.0,101,1,4,2023,3,23,11,20
584.7031709000003,0.6882201000116765,image_pos,1.0388143999734891,wonder,y,0.0,male,21.0,101,1,4,2023,3,23,11,20
594.7028425000608,0.688560799928382,image_pos,0.8058894999558106,bonfire,y,0.0,male,21.0,101,1,4,2023,3,23,11,20
0.9960367999738082,0.6903679000679404,word_pos,0.4200124000199139,trust,y,0.0,male,21.0,101,1,4,2023,3,23,11,20
10.990039400057867,0.6964727999875322,word_neg,0.6540017999941483,insult,b,0.0,male,21.0,101,1,4,2023,3,23,11,20
20.990036600036547,0.6965523000108078,word_pos,0.4538241999689489,honey,y,0.0,male,21.0,101,1,4,2023,3,23,11,20
30.989693099982105,0.6970035000704229,word_neg,0.4557291000382975,loan,b,0.0,male,21.0,101,1,4,2023,3,23,11,20
40.98890420002863,0.6978627999778837,word_neu,0.6891666000010446,door,b,0.0,male,21.0,101,1,4,2023,3,23,11,20
50.99013000004925,0.69682469998952,word_neg,0.7058928000042215,battle,b,0.0,male,21.0,101,1,4,2023,3,23,11,20
60.99011130002327,0.6968411999987438,word_pos,0.7223565999884158,bicycle,y,0.0,male,21.0,101,1,4,2023,3,23,11,20
70.99002410005778,0.6970376999815926,word_neg,0.4726492000045255,fallacy,b,0.0,male,21.0,101,1,4,2023,3,23,11,20
80.9890608000569,0.6980135999619961,word_pos,0.9388338000280784,lust,y,0.0,male,21.0,101,1,4,2023,3,23,11,20
90.99131379998288,0.6959293000400208,word_neu,0.6891437000595033,journalist,b,0.0,male,21.0,101,1,4,2023,3,23,11,20
100.99035229999572,0.6969530000351369,word_neg,0.6057340999832377,saw,b,0.0,male,21.0,101,1,4,2023,3,23,11,20
110.99092739995103,0.6965817000018433,word_neu,0.589107200037688,businessman,b,0.0,male,21.0,101,1,4,2023,3,23,11,20
120.98933879996184,0.6981340000638738,word_neu,0.672235400066711,boy,b,0.0,male,21.0,101,1,4,2023,3,23,11,20
130.99135779996868,0.6961631000740454,word_pos,0.9058393000159412,gratitude,y,0.0,male,21.0,101,1,4,2023,3,23,11,20
140.99079880001955,0.6968024999368936,word_pos,0.7887303000316024,parent,y,0.0,male,21.0,101,1,4,2023,3,23,11,20
150.98969770001713,0.6980544000398368,word_neu,0.6388092000270262,guard,b,0.0,male,21.0,101,1,4,2023,3,23,11,20
160.9900312999962,0.6977455000160262,word_neu,0.7560167000629008,shoulder,b,0.0,male,21.0,101,1,4,2023,3,23,11,20
170.99030519998632,0.6976594000589103,word_neg,0.656096399994567,denial,b,0.0,male,21.0,101,1,4,2023,3,23,11,20
180.99109040002804,0.6968449000269175,word_neg,0.5223752999445423,snake,b,0.0,male,21.0,101,1,4,2023,3,23,11,20
190.99016210006084,0.6979719999944507,word_neu,1.1389391999691725,circus,y,0.0,male,21.0,101,1,4,2023,3,23,11,20
200.99249239999327,0.6957370999735133,word_neg,0.7891517000971362,expensive,b,0.0,male,21.0,101,1,4,2023,3,23,11,20
210.99008160002995,0.6981641999445571,word_neu,0.6723289999645203,team,b,0.0,male,21.0,101,1,4,2023,3,23,11,20
220.99077879998367,0.6975089000771391,word_pos,0.5058099000016227,harmonica,y,0.0,male,21.0,101,1,4,2023,3,23,11,20
230.9906031000428,0.6978609999641776,word_pos,0.6395946000702679,kitchen,y,0.0,male,21.0,101,1,4,2023,3,23,11,20
240.9907750999555,0.6976646000985056,word_neu,0.7227829999756068,worker,b,0.0,male,21.0,101,1,4,2023,3,23,11,20
250.99071519996505,0.6978058000095189,word_neu,0.6892625000327826,theme,b,0.0,male,21.0,101,1,4,2023,3,23,11,20
260.99079359997995,0.6978923999704421,word_neg,0.4892084999009967,scream,b,0.0,male,21.0,101,1,4,2023,3,23,11,20
270.990923400037,0.6978862999239936,word_pos,0.7057788000674918,peace,y,0.0,male,21.0,101,1,4,2023,3,23,11,20
280.9911707000574,0.6977571999887004,word_neg,0.672500399989076,court,b,0.0,male,21.0,101,1,4,2023,3,23,11,20
290.9907438999508,0.6982266000704271,word_pos,0.4888359999749809,dog,y,0.0,male,21.0,101,1,4,2023,3,23,11,20
300.9913416999625,0.6976746000582352,word_neg,0.5893475000048056,torment,b,0.0,male,21.0,101,1,4,2023,3,23,11,20
310.9911905999761,0.697879399987869,word_pos,0.8390833000885323,truce,y,0.0,male,21.0,101,1,4,2023,3,23,11,20
320.9915131999878,0.6976452000671998,word_pos,0.6391154000302777,bread,y,0.0,male,21.0,101,1,4,2023,3,23,11,20
330.99140030005947,0.6978559999261051,word_pos,0.6224642000161111,banjo,y,0.0,male,21.0,101,1,4,2023,3,23,11,20
340.9929346999852,0.6964372000657022,word_neg,0.7894010000163689,zone,b,0.0,male,21.0,101,1,4,2023,3,23,11,20
350.9915068000555,0.697911600000225,word_neg,0.6889622000744566,pig,b,0.0,male,21.0,101,1,4,2023,3,23,11,20
360.9916846000124,0.6978412000462413,word_pos,0.6946357000852004,choir,y,0.0,male,21.0,101,1,4,2023,3,23,11,20
370.9920906999614,0.6975109000923112,word_pos,0.7722119999816641,festival,y,0.0,male,21.0,101,1,4,2023,3,23,11,20
380.99157339998055,0.6981075999792665,word_neu,0.7556754999095574,bell,b,0.0,male,21.0,101,1,4,2023,3,23,11,20
390.9921857999871,0.6975853000766961,word_neg,0.5389861000003293,stampede,b,0.0,male,21.0,101,1,4,2023,3,23,11,20
400.9917605000082,0.6980729999486925,word_neu,0.7225261999992654,put,b,0.0,male,21.0,101,1,4,2023,3,23,11,20
410.9922095000511,0.6977050999412313,word_neu,0.7557947000022978,baseball,b,0.0,male,21.0,101,1,4,2023,3,23,11,20
420.9919021000387,0.698104099952559,word_neu,0.6390652999980375,red,b,0.0,male,21.0,101,1,4,2023,3,23,11,20
430.9921840999741,0.6979507000650642,word_neu,0.672324699931778,mouth,b,0.0,male,21.0,101,1,4,2023,3,23,11,20
440.9925532999914,0.6976441000588238,word_neg,0.9227238999446854,flood,b,0.0,male,21.0,101,1,4,2023,3,23,11,20
450.99258970003575,0.6977218999527395,word_neg,0.8059326000511646,animosity,b,0.0,male,21.0,101,1,4,2023,3,23,11,20
460.9923253000016,0.6980569000588162,word_pos,1.222507999977097,bay,y,0.0,male,21.0,101,1,4,2023,3,23,11,20
470.992993599968,0.6975009000162231,word_neu,0.9389303999487312,scientist,y,0.0,male,21.0,101,1,4,2023,3,23,11,20
480.9927940999624,0.697690600063595,word_neu,0.6722097999881953,elevator,b,0.0,male,21.0,101,1,4,2023,3,23,11,20
490.9926876999671,0.6979373000794453,word_neu,0.939067899947986,hall,b,0.0,male,21.0,101,1,4,2023,3,23,11,20
500.99307920003776,0.6976704000262544,word_neg,0.689168700017035,explosion,b,0.0,male,21.0,101,1,4,2023,3,23,11,20
510.99286810006015,0.697949899942671,word_pos,0.5554490999784321,flower,y,0.0,male,21.0,101,1,4,2023,3,23,11,20
520.9931496999925,0.6976983000058681,word_neu,0.5390096999472007,chestnut,y,0.0,male,21.0,101,1,4,2023,3,23,11,20
530.9931405000389,0.6977994999615476,word_neg,0.7725288000656292,empty,b,0.0,male,21.0,101,1,4,2023,3,23,11,20
540.9933190000011,0.697656900039874,word_pos,0.7226578999543563,heroism,b,1.0,male,21.0,101,1,4,2023,3,23,11,20
550.9932214999571,0.6977541000815108,word_neu,0.6221194999525324,hand,y,0.0,male,21.0,101,1,4,2023,3,23,11,20
560.9935057000257,0.6975987999467179,word_neg,0.6891142000677064,accident,b,0.0,male,21.0,101,1,4,2023,3,23,11,20
570.9938595000422,0.6974407000234351,word_neg,0.7061218000017107,majority,b,0.0,male,21.0,101,1,4,2023,3,23,11,20
580.9936916000443,0.6976193999871612,word_pos,1.0388143999734891,wonder,y,0.0,male,21.0,101,1,4,2023,3,23,11,20
590.9936793999514,0.6977605000138283,word_pos,0.8058894999558106,bonfire,y,0.0,male,21.0,101,1,4,2023,3,23,11,20
7.310877899988554,0.6831254999851808,image_neg,1.3503071999875829,tornado,b,0.0,male,21.0,101,1,1,2023,3,23,10,28
17.304911000072025,0.689142799936235,image_pos,0.8563705999404192,corkscrew,y,0.0,male,21.0,101,1,1,2023,3,23,10,28
27.307218500063755,0.6870093999896163,image_pos,0.4873645999468863,fun,y,0.0,male,21.0,101,1,1,2023,3,23,10,28
37.30593809997663,0.6883354000747204,image_pos,0.7387824000325054,school,y,0.0,male,21.0,101,1,1,2023,3,23,10,28
47.30559300002642,0.6888186000287533,image_neg,0.7559189000166953,commander,b,0.0,male,21.0,101,1,1,2023,3,23,10,28
57.30606169998646,0.6883361000800505,image_pos,0.4054351000813767,garden,y,0.0,male,21.0,101,1,1,2023,3,23,10,28
64.70593030005693,0.6885640999535099,image_neg,0.8390806999523193,field,b,0.0,male,21.0,101,1,1,2023,3,23,10,28
74.70600470004138,0.6886366000398993,image_pos,0.7224180999910459,kiss,y,0.0,male,21.0,101,1,1,2023,3,23,10,28
84.70602729998063,0.6885572000173852,image_pos,0.5390400000615045,new,y,0.0,male,21.0,101,1,1,2023,3,23,10,28
97.30639060004614,0.6883149000350386,image_pos,0.6553737999638543,spatula,y,0.0,male,21.0,101,1,1,2023,3,23,10,28
104.7064018000383,0.6883131000213467,image_pos,0.6888350000372157,zoo,y,0.0,male,21.0,101,1,1,2023,3,23,10,28
117.30639679997694,0.688622200046666,image_pos,0.4389302000636235,beach,y,0.0,male,21.0,101,1,1,2023,3,23,10,28
124.70625450008085,0.6887006999458976,image_pos,0.5224225999554619,famous,y,0.0,male,21.0,101,1,1,2023,3,23,10,28
137.3064101000782,0.688697199919261,image_neg,0.4723955999361351,sandpaper,b,0.0,male,21.0,101,1,1,2023,3,23,10,28
147.30652530002408,0.6886884999694303,image_neg,0.4724906999617815,mouse,b,0.0,male,21.0,101,1,1,2023,3,23,10,28
154.70662700000685,0.6886846000561491,image_neg,0.5224027000367641,aggressive,b,0.0,male,21.0,101,1,1,2023,3,23,10,28
164.70697250007652,0.6884030000073835,image_pos,0.4887644000118598,happy,y,0.0,male,21.0,101,1,1,2023,3,23,10,28
174.70693460002076,0.6886154999956489,image_pos,0.5391473000636324,moral,y,0.0,male,21.0,101,1,1,2023,3,23,10,28
187.30701480002608,0.6885759000433609,image_neg,0.4722766999620944,envy,b,0.0,male,21.0,101,1,1,2023,3,23,10,28
194.7071589999832,0.6885021000635163,image_neg,0.6054819000419229,gasp,b,0.0,male,21.0,101,1,1,2023,3,23,10,28
204.70763880002772,0.6880627999780984,image_pos,0.8553132000379264,fence,y,0.0,male,21.0,101,1,1,2023,3,23,10,28
217.3072479000548,0.6885414000134915,image_neg,0.6723090999294072,embassy,b,0.0,male,21.0,101,1,1,2023,3,23,10,28
224.7073271999834,0.688630000106059,image_neg,0.6890872000949457,lonely,b,0.0,male,21.0,101,1,1,2023,3,23,10,28
234.70747050002683,0.6885109000140801,image_neg,0.4555916000390425,hospital,b,0.0,male,21.0,101,1,1,2023,3,23,10,28
247.3074580000248,0.6886864999541444,image_neg,0.4056809999747202,avalanche,b,0.0,male,21.0,101,1,1,2023,3,23,10,28
257.30775969999377,0.6884493000106886,image_pos,0.6221417000051588,wealthy,y,0.0,male,21.0,101,1,1,2023,3,23,10,28
264.7076696000295,0.6885359999723732,image_neg,0.5390116999624297,plot,b,0.0,male,21.0,101,1,1,2023,3,23,10,28
274.70776850008406,0.6885351999662817,image_pos,0.7556912999134511,hamster,y,0.0,male,21.0,101,1,1,2023,3,23,10,28
284.70786990004126,0.6885478999465704,image_pos,0.3889310000231489,lake,y,0.0,male,21.0,101,1,1,2023,3,23,10,28
294.7079835999757,0.6885545001132414,image_pos,0.4224878000095486,tomato,y,0.0,male,21.0,101,1,1,2023,3,23,10,28
307.3080127000576,0.6885639999527484,image_pos,0.4724388999165967,limousine,y,0.0,male,21.0,101,1,1,2023,3,23,10,28
314.7080661000218,0.6887276000342695,image_neg,0.6223605000413954,hurricane,b,0.0,male,21.0,101,1,1,2023,3,23,10,28
327.3080460000783,0.6887382999993861,image_neg,0.539247400010936,deceit,b,0.0,male,21.0,101,1,1,2023,3,23,10,28
334.7082858000649,0.6885403000051156,image_pos,0.8059789999388158,beer,y,0.0,male,21.0,101,1,1,2023,3,23,10,28
347.3085880000144,0.6883382999803871,image_neg,0.6554373999824747,bribe,b,0.0,male,21.0,101,1,1,2023,3,23,10,28
357.30869049998,0.6884017999982461,image_pos,0.5887715000426397,fiddle,y,0.0,male,21.0,101,1,1,2023,3,23,10,28
367.3085443000309,0.6885447000386762,image_neg,0.8390969999600202,noun,b,0.0,male,21.0,101,1,1,2023,3,23,10,28
374.7089453000808,0.6882879999465672,image_pos,0.372041399939917,oak,y,0.0,male,21.0,101,1,1,2023,3,23,10,28
387.3089431000408,0.6883860999951139,image_pos,0.3554658000357449,plum,y,0.0,male,21.0,101,1,1,2023,3,23,10,28
397.3087663999759,0.6886254000709755,image_neg,0.8389946001116186,policeman,b,0.0,male,21.0,101,1,1,2023,3,23,10,28
404.7087018000893,0.6887607999379384,image_neg,0.6892584998859093,treaty,b,0.0,male,21.0,101,1,1,2023,3,23,10,28
417.3090771000134,0.6885058999760076,image_pos,0.4555531999794766,pineapple,y,0.0,male,21.0,101,1,1,2023,3,23,10,28
424.70922279998194,0.6884182000067653,image_pos,0.6058221000712365,rocket,y,0.0,male,21.0,101,1,1,2023,3,23,10,28
434.7089141000761,0.6887898999266326,image_neg,0.6392824999056756,whale,b,0.0,male,21.0,101,1,1,2023,3,23,10,28
444.7094964000862,0.6882441999623552,image_pos,0.7722950999159366,boat,y,0.0,male,21.0,101,1,1,2023,3,23,10,28
454.70922329998575,0.6886588000925258,image_neg,0.8225100000854582,truck,b,0.0,male,21.0,101,1,1,2023,3,23,10,28
464.7098001000704,0.6881836999673396,image_pos,0.4220711999805644,sled,y,0.0,male,21.0,101,1,1,2023,3,23,10,28
477.3092677000677,0.6889423999236897,image_neg,0.6894656999502331,meeting,b,0.0,male,21.0,101,1,1,2023,3,23,10,28
487.3094501000596,0.6887796999653801,image_neg,0.3391311999876052,victim,b,0.0,male,21.0,101,1,1,2023,3,23,10,28
497.3096484000562,0.6886648000217974,image_neg,0.339051799965091,alligator,b,0.0,male,21.0,101,1,1,2023,3,23,10,28
507.309890100034,0.6885505999670727,image_pos,0.5555890999967232,tourist,y,0.0,male,21.0,101,1,1,2023,3,23,10,28
514.7099894999992,0.6884177000029013,image_pos,0.638829700066708,woman,y,0.0,male,21.0,101,1,1,2023,3,23,10,28
524.7101642000489,0.6883811999578029,image_pos,0.5221262000268325,man,y,0.0,male,21.0,101,1,1,2023,3,23,10,28
537.3100105000194,0.6886522000422701,image_neg,0.5723951000254601,jury,b,0.0,male,21.0,101,1,1,2023,3,23,10,28
544.710117300041,0.6886631000088528,image_pos,0.6725221000378951,love,y,0.0,male,21.0,101,1,1,2023,3,23,10,28
554.7099406999769,0.6887912000529468,image_neg,0.705985700013116,diplomat,b,0.0,male,21.0,101,1,1,2023,3,23,10,28
564.7106816000305,0.6881477000424638,image_pos,0.6052927999990061,pie,y,0.0,male,21.0,101,1,1,2023,3,23,10,28
577.3102992000058,0.6887008000630885,image_neg,0.8225557999685407,bridge,b,0.0,male,21.0,101,1,1,2023,3,23,10,28
587.3107274000067,0.688353699981235,image_pos,0.4887777999974787,lemonade,y,0.0,male,21.0,101,1,1,2023,3,23,10,28
597.3105283000041,0.6887135000433773,image_pos,1.155871200026013,keyboard,y,0.0,male,21.0,101,1,1,2023,3,23,10,28
1.0047469000564888,0.6891986000118775,word_neg,1.3503071999875829,tornado,b,0.0,male,21.0,101,1,1,2023,3,23,10,28
10.99887090001721,0.6951401999685913,word_neu,0.8563705999404192,corkscrew,y,0.0,male,21.0,101,1,1,2023,3,23,10,28
20.99769119999837,0.6963934000814334,word_pos,0.4873645999468863,fun,y,0.0,male,21.0,101,1,1,2023,3,23,10,28
30.99738090008032,0.696820499957532,word_neu,0.7387824000325054,school,y,0.0,male,21.0,101,1,1,2023,3,23,10,28
40.99769280001056,0.696566900005557,word_neg,0.7559189000166953,commander,b,0.0,male,21.0,101,1,1,2023,3,23,10,28
50.997417400009,0.6969379000365734,word_pos,0.4054351000813767,garden,y,0.0,male,21.0,101,1,1,2023,3,23,10,28
60.99745850008912,0.6969532999210131,word_neu,0.8390806999523193,field,b,0.0,male,21.0,101,1,1,2023,3,23,10,28
70.99675150006078,0.6977822999469936,word_pos,0.7224180999910459,kiss,y,0.0,male,21.0,101,1,1,2023,3,23,10,28
80.99664680007845,0.6979417999973521,word_pos,0.5390400000615045,new,y,0.0,male,21.0,101,1,1,2023,3,23,10,28
90.99803130002692,0.6966468000318713,word_neu,0.6553737999638543,spatula,y,0.0,male,21.0,101,1,1,2023,3,23,10,28
100.99840859998947,0.6964535000734031,word_pos,0.6888350000372157,zoo,y,0.0,male,21.0,101,1,1,2023,3,23,10,28
110.99787040008232,0.6970950999530032,word_pos,0.4389302000636235,beach,y,0.0,male,21.0,101,1,1,2023,3,23,10,28
120.99755930004176,0.6974226000020423,word_neu,0.5224225999554619,famous,y,0.0,male,21.0,101,1,1,2023,3,23,10,28
130.99749650002923,0.6976279000518844,word_neg,0.4723955999361351,sandpaper,b,0.0,male,21.0,101,1,1,2023,3,23,10,28
140.99720490002073,0.6980226000305265,word_neg,0.4724906999617815,mouse,b,0.0,male,21.0,101,1,1,2023,3,23,10,28
150.99910660006572,0.6961647999705747,word_neg,0.5224027000367641,aggressive,b,0.0,male,21.0,101,1,1,2023,3,23,10,28
160.99829880008474,0.6969745999667794,word_pos,0.4887644000118598,happy,y,0.0,male,21.0,101,1,1,2023,3,23,10,28
170.99775620002765,0.6977026000386104,word_pos,0.5391473000636324,moral,y,0.0,male,21.0,101,1,1,2023,3,23,10,28
180.99740800005384,0.6980768999783322,word_neg,0.4722766999620944,envy,b,0.0,male,21.0,101,1,1,2023,3,23,10,28
190.99757790006697,0.6979733000043495,word_neg,0.6054819000419229,gasp,b,0.0,male,21.0,101,1,1,2023,3,23,10,28
200.99771760008292,0.6979629999259771,word_neu,0.8553132000379264,fence,y,0.0,male,21.0,101,1,1,2023,3,23,10,28
210.9980286000064,0.69774910004341,word_neu,0.6723090999294072,embassy,b,0.0,male,21.0,101,1,1,2023,3,23,10,28
220.99815300002228,0.6977262999862432,word_neg,0.6890872000949457,lonely,b,0.0,male,21.0,101,1,1,2023,3,23,10,28
230.99818620004223,0.6977176000364409,word_neg,0.4555916000390425,hospital,b,0.0,male,21.0,101,1,1,2023,3,23,10,28
240.9985306999879,0.6975575000979006,word_neg,0.4056809999747202,avalanche,b,0.0,male,21.0,101,1,1,2023,3,23,10,28
250.9986781000625,0.6974975999910953,word_pos,0.6221417000051588,wealthy,y,0.0,male,21.0,101,1,1,2023,3,23,10,28
260.9981477999827,0.6980682000285015,word_neg,0.5390116999624297,plot,b,0.0,male,21.0,101,1,1,2023,3,23,10,28
270.9985680000391,0.6975935000227764,word_neu,0.7556912999134511,hamster,y,0.0,male,21.0,101,1,1,2023,3,23,10,28
280.998596200021,0.6976780999684706,word_pos,0.3889310000231489,lake,y,0.0,male,21.0,101,1,1,2023,3,23,10,28
290.9987874000799,0.6976496999850497,word_neu,0.4224878000095486,tomato,y,0.0,male,21.0,101,1,1,2023,3,23,10,28
300.9990635000868,0.6975021999096498,word_pos,0.4724388999165967,limousine,y,0.0,male,21.0,101,1,1,2023,3,23,10,28
310.9990595000563,0.6975569999776781,word_neg,0.6223605000413954,hurricane,b,0.0,male,21.0,101,1,1,2023,3,23,10,28
320.99886689998675,0.6978030999889597,word_neg,0.539247400010936,deceit,b,0.0,male,21.0,101,1,1,2023,3,23,10,28
330.99897640000563,0.6978749000700191,word_neu,0.8059789999388158,beer,y,0.0,male,21.0,101,1,1,2023,3,23,10,28
340.99916810006835,0.6978225000202656,word_neg,0.6554373999824747,bribe,b,0.0,male,21.0,101,1,1,2023,3,23,10,28
350.99907470005564,0.6979195999447825,word_neu,0.5887715000426397,fiddle,y,0.0,male,21.0,101,1,1,2023,3,23,10,28
360.9991136000026,0.6979744000127539,word_neu,0.8390969999600202,noun,b,0.0,male,21.0,101,1,1,2023,3,23,10,28
370.9991860000882,0.6979974999559317,word_pos,0.372041399939917,oak,y,0.0,male,21.0,101,1,1,2023,3,23,10,28
380.9991714999778,0.6980440000770614,word_pos,0.3554658000357449,plum,y,0.0,male,21.0,101,1,1,2023,3,23,10,28
390.99966590001713,0.6976536000147462,word_neg,0.8389946001116186,policeman,b,0.0,male,21.0,101,1,1,2023,3,23,10,28
400.9996039000107,0.6977796000429066,word_neu,0.6892584998859093,treaty,b,0.0,male,21.0,101,1,1,2023,3,23,10,28
411.0001043999801,0.6974041000939906,word_pos,0.4555531999794766,pineapple,y,0.0,male,21.0,101,1,1,2023,3,23,10,28
420.99976680008695,0.6980282999575138,word_neu,0.6058221000712365,rocket,y,0.0,male,21.0,101,1,1,2023,3,23,10,28
430.9998154999921,0.6978524000151083,word_neu,0.6392824999056756,whale,b,0.0,male,21.0,101,1,1,2023,3,23,10,28
440.99987030006014,0.6979149000253528,word_pos,0.7722950999159366,boat,y,0.0,male,21.0,101,1,1,2023,3,23,10,28
451.0001480000792,0.6977510999423089,word_neu,0.8225100000854582,truck,b,0.0,male,21.0,101,1,1,2023,3,23,10,28
461.0000349000329,0.6979068999644369,word_pos,0.4220711999805644,sled,y,0.0,male,21.0,101,1,1,2023,3,23,10,28
471.0003459000727,0.6976861999137896,word_neg,0.6894656999502331,meeting,b,0.0,male,21.0,101,1,1,2023,3,23,10,28
481.0002862000838,0.6978273999411613,word_neg,0.3391311999876052,victim,b,0.0,male,21.0,101,1,1,2023,3,23,10,28
491.0009491000092,0.6972793000749675,word_neg,0.339051799965091,alligator,b,0.0,male,21.0,101,1,1,2023,3,23,10,28
501.00056980003137,0.6977033000439405,word_neu,0.5555890999967232,tourist,y,0.0,male,21.0,101,1,1,2023,3,23,10,28
511.0005191999953,0.6977806000504643,word_pos,0.638829700066708,woman,y,0.0,male,21.0,101,1,1,2023,3,23,10,28
521.0005596000701,0.6979022999294102,word_neu,0.5221262000268325,man,y,0.0,male,21.0,101,1,1,2023,3,23,10,28
531.0021944000619,0.6963379000080749,word_neg,0.5723951000254601,jury,b,0.0,male,21.0,101,1,1,2023,3,23,10,28
541.0006119000027,0.6980155999772251,word_pos,0.6725221000378951,love,y,0.0,male,21.0,101,1,1,2023,3,23,10,28
551.0011048000306,0.6976598999463022,word_neg,0.705985700013116,diplomat,b,0.0,male,21.0,101,1,1,2023,3,23,10,28
561.000760300085,0.6980948999989778,word_pos,0.6052927999990061,pie,y,0.0,male,21.0,101,1,1,2023,3,23,10,28
571.0012200999772,0.6976908000651747,word_neu,0.8225557999685407,bridge,b,0.0,male,21.0,101,1,1,2023,3,23,10,28
581.00144979998,0.6976248000282794,word_pos,0.4887777999974787,lemonade,y,0.0,male,21.0,101,1,1,2023,3,23,10,28
591.0014513999922,0.6975182000314817,word_neu,1.155871200026013,keyboard,y,0.0,male,21.0,101,1,1,2023,3,23,10,28
7.291238800040446,0.6860887999646366,image_neg,0.836664899950847,foot,b,0.0,male,21.0,101,1,3,2023,3,23,11,8
14.690324499970302,0.6872065000934544,image_neg,0.4876158999977633,spiritual,b,0.0,male,21.0,101,1,3,2023,3,23,11,8
24.69073859998025,0.68690309999511,image_pos,0.637326700030826,glass,y,0.0,male,21.0,101,1,3,2023,3,23,11,8
34.689628800028004,0.688106199959293,image_pos,0.5219139999244362,year,y,0.0,male,21.0,101,1,3,2023,3,23,11,8
44.68943649996072,0.6883405999979004,image_pos,0.672268700087443,computer,y,0.0,male,21.0,101,1,3,2023,3,23,11,8
57.28959060006309,0.6883260000031441,image_pos,0.4387675999896601,hope,y,0.0,male,21.0,101,1,3,2023,3,23,11,8
64.68949849996716,0.6884635000023991,image_neg,0.6389094000915065,volcano,b,0.0,male,21.0,101,1,3,2023,3,23,11,8
74.68992450006772,0.688137499964796,image_pos,0.6051700999960303,flute,y,0.0,male,21.0,101,1,3,2023,3,23,11,8
87.28990550001618,0.6882481999928132,image_pos,0.4054719000123441,harp,y,0.0,male,21.0,101,1,3,2023,3,23,11,8
94.6897046000231,0.6885514999739684,image_neg,0.5056000000331551,tobacco,b,0.0,male,21.0,101,1,3,2023,3,23,11,8
107.28998440003488,0.6884463999885924,image_neg,0.4887738999677822,tax,b,0.0,male,21.0,101,1,3,2023,3,23,11,8
114.689949600026,0.6884639000054591,image_neg,0.6222196000162512,malice,b,0.0,male,21.0,101,1,3,2023,3,23,11,8
127.2900815999601,0.6884795000078157,image_pos,0.422238300088793,park,y,0.0,male,21.0,101,1,3,2023,3,23,11,8
137.29001520003658,0.6884876999538392,image_neg,0.4890577999176457,dusty,b,0.0,male,21.0,101,1,3,2023,3,23,11,8
147.29028620000463,0.6884859000565484,image_neg,0.4389045999851078,belch,b,0.0,male,21.0,101,1,3,2023,3,23,11,8
157.29083359998185,0.6880173999816179,image_pos,0.4217326000798493,tuba,y,0.0,male,21.0,101,1,3,2023,3,23,11,8
164.69052229996305,0.6884027000050992,image_neg,0.7060710000805557,witness,b,0.0,male,21.0,101,1,3,2023,3,23,11,8
174.6929894000059,0.6859666999662295,image_neg,0.586380900000222,snub,b,0.0,male,21.0,101,1,3,2023,3,23,11,8
187.29096809995823,0.6881481000455381,image_pos,0.3885901001049205,car,y,0.0,male,21.0,101,1,3,2023,3,23,11,8
197.29121649998703,0.6878711000317992,image_pos,0.5884373000590131,couple,y,0.0,male,21.0,101,1,3,2023,3,23,11,8
204.69095279998143,0.6882285000756667,image_pos,0.9054242999991402,agreement,y,0.0,male,21.0,101,1,3,2023,3,23,11,8
217.2908852000255,0.6884154999861778,image_pos,0.388893699971959,goldfish,y,0.0,male,21.0,101,1,3,2023,3,23,11,8
227.2909252999816,0.6885166000574827,image_neg,0.7723588000517339,faucet,b,0.0,male,21.0,101,1,3,2023,3,23,11,8
237.2910433000652,0.68847369996368,image_neg,0.6055721999146044,delirium,b,0.0,male,21.0,101,1,3,2023,3,23,11,8
247.2912361000199,0.6883716000011191,image_pos,0.4719902999931946,family,y,0.0,male,21.0,101,1,3,2023,3,23,11,8
254.6909857999999,0.6886690000537783,image_neg,0.505826500011608,gum,y,0.0,male,21.0,101,1,3,2023,3,23,11,8
267.2911216999637,0.688604600029123,image_neg,0.6224263000767678,voter,b,0.0,male,21.0,101,1,3,2023,3,23,11,8
277.29146049998235,0.6884011999936774,image_pos,0.4721081000752747,bird,y,0.0,male,21.0,101,1,3,2023,3,23,11,8
287.2914434999693,0.688443300081417,image_pos,0.6888960000360385,egg,y,0.0,male,21.0,101,1,3,2023,3,23,11,8
294.69154220004566,0.688492099987343,image_pos,0.6721918999683112,rose,y,0.0,male,21.0,101,1,3,2023,3,23,11,8
307.2917129000416,0.6884137999732047,image_pos,0.4387976999860257,coffee,y,0.0,male,21.0,101,1,3,2023,3,23,11,8
317.29183490003925,0.688321299967356,image_pos,0.7389261999633163,reality,y,0.0,male,21.0,101,1,3,2023,3,23,11,8
327.29168560006656,0.6885879999026656,image_neg,0.8223844999447465,criminal,b,0.0,male,21.0,101,1,3,2023,3,23,11,8
334.69179579999764,0.6885088999988511,image_pos,0.5223379000090063,pencil,y,0.0,male,21.0,101,1,3,2023,3,23,11,8
347.2921835000161,0.68824659998063,image_pos,1.0721324000041932,jungle,y,0.0,male,21.0,101,1,3,2023,3,23,11,8
357.29192830005195,0.6885876000160351,image_pos,0.3723700999980792,jam,y,0.0,male,21.0,101,1,3,2023,3,23,11,8
367.292264000047,0.6884097999427468,image_pos,0.4221444999566301,butterfly,y,0.0,male,21.0,101,1,3,2023,3,23,11,8
374.69223040004726,0.6883856999920113,image_pos,0.922311499947682,raspberry,y,0.0,male,21.0,101,1,3,2023,3,23,11,8
384.692207199987,0.6885361999738961,image_neg,1.03916130005382,radish,b,0.0,male,21.0,101,1,3,2023,3,23,11,8
397.2922961000586,0.6886041999096051,image_neg,0.5056859999895096,grievance,b,0.0,male,21.0,101,1,3,2023,3,23,11,8
407.292496399954,0.6883196000707699,image_neg,0.6888444001087919,shame,b,0.0,male,21.0,101,1,3,2023,3,23,11,8
414.6923799000215,0.6886551999486983,image_neg,0.6557518999325112,debate,b,0.0,male,21.0,101,1,3,2023,3,23,11,8
424.6927057000576,0.6883991999783916,image_neg,0.7056771999923512,reporter,b,0.0,male,21.0,101,1,3,2023,3,23,11,8
437.2925030000042,0.6887063999893144,image_neg,0.6724521999713033,toe,b,0.0,male,21.0,101,1,3,2023,3,23,11,8
444.6928161999677,0.6883479000534294,image_pos,0.5557144000194967,island,y,0.0,male,21.0,101,1,3,2023,3,23,11,8
454.692869600025,0.688478900003247,image_pos,0.6890977999428287,plane,y,0.0,male,21.0,101,1,3,2023,3,23,11,8
464.69290959998034,0.688501900061965,image_neg,0.7723457000683993,trial,b,0.0,male,21.0,101,1,3,2023,3,23,11,8
474.69434319995344,0.6871801000088453,image_pos,0.6709982000757009,symphony,y,0.0,male,21.0,101,1,3,2023,3,23,11,8
487.29305810004007,0.6886024000123143,image_neg,0.5056492999428883,cyclone,b,0.0,male,21.0,101,1,3,2023,3,23,11,8
497.29307550005615,0.6886113999644294,image_neg,1.1724716000026092,patent,b,0.0,male,21.0,101,1,3,2023,3,23,11,8
504.6932564000599,0.6885532999876887,image_neg,0.6389412999851629,cabinet,b,0.0,male,21.0,101,1,3,2023,3,23,11,8
517.2933949000435,0.6884994999272749,image_pos,0.772460600011982,joy,y,0.0,male,21.0,101,1,3,2023,3,23,11,8
524.6934623999987,0.6885149000445381,image_pos,0.4391055000014603,advantage,y,0.0,male,21.0,101,1,3,2023,3,23,11,8
534.6933367999736,0.6886266000801697,image_neg,0.8059363000793383,cafeteria,b,0.0,male,21.0,101,1,3,2023,3,23,11,8
544.6935291000409,0.6886556999525055,image_pos,0.7059103000210598,saxophone,y,0.0,male,21.0,101,1,3,2023,3,23,11,8
557.2937052999623,0.6885215000947937,image_neg,1.0390387000516057,cabbage,b,0.0,male,21.0,101,1,3,2023,3,23,11,8
564.6938095999649,0.6885031000711024,image_neg,0.7392118000425398,pen,b,0.0,male,21.0,101,1,3,2023,3,23,11,8
577.2940528000472,0.6883763999212533,image_pos,0.4055404999526217,fountain,y,0.0,male,21.0,101,1,3,2023,3,23,11,8
587.293740699999,0.6888477000175044,image_neg,0.7726377999642864,cold,b,0.0,male,21.0,101,1,3,2023,3,23,11,8
597.293752299971,0.6888650000328198,image_neg,0.5392472000094131,sum,b,0.0,male,21.0,101,1,3,2023,3,23,11,8
0.9863806000212209,0.6909636999480425,word_neg,0.836664899950847,foot,b,0.0,male,21.0,101,1,3,2023,3,23,11,8
10.982631999999285,0.6949266999727115,word_neu,0.4876158999977633,spiritual,b,0.0,male,21.0,101,1,3,2023,3,23,11,8
20.98069650004618,0.6967919999733532,word_neu,0.637326700030826,glass,y,0.0,male,21.0,101,1,3,2023,3,23,11,8
30.98057570005767,0.6969929999904707,word_neu,0.5219139999244362,year,y,0.0,male,21.0,101,1,3,2023,3,23,11,8
40.98143399995752,0.6964266001014039,word_pos,0.672268700087443,computer,y,0.0,male,21.0,101,1,3,2023,3,23,11,8
50.98072380002122,0.6970621999353241,word_pos,0.4387675999896601,hope,y,0.0,male,21.0,101,1,3,2023,3,23,11,8
60.98199050000403,0.695945700048469,word_neg,0.6389094000915065,volcano,b,0.0,male,21.0,101,1,3,2023,3,23,11,8
70.98020550003275,0.697699400014244,word_pos,0.6051700999960303,flute,y,0.0,male,21.0,101,1,3,2023,3,23,11,8
80.98021479998715,0.6978547000326216,word_neu,0.4054719000123441,harp,y,0.0,male,21.0,101,1,3,2023,3,23,11,8
90.98149010003544,0.6966624999186024,word_neg,0.5056000000331551,tobacco,b,0.0,male,21.0,101,1,3,2023,3,23,11,8
100.9816713000182,0.6965793999843299,word_neg,0.4887738999677822,tax,b,0.0,male,21.0,101,1,3,2023,3,23,11,8
110.9806794000324,0.6976723999250396,word_neg,0.6222196000162512,malice,b,0.0,male,21.0,101,1,3,2023,3,23,11,8
120.98124230001122,0.6970886000199243,word_pos,0.422238300088793,park,y,0.0,male,21.0,101,1,3,2023,3,23,11,8
130.98076119995676,0.6978038001107336,word_neg,0.4890577999176457,dusty,b,0.0,male,21.0,101,1,3,2023,3,23,11,8
140.98072160000447,0.6979619000339881,word_neg,0.4389045999851078,belch,b,0.0,male,21.0,101,1,3,2023,3,23,11,8
150.9806231999537,0.6981118000112758,word_neu,0.4217326000798493,tuba,y,0.0,male,21.0,101,1,3,2023,3,23,11,8
160.98195040004794,0.6968861999921501,word_neu,0.7060710000805557,witness,b,0.0,male,21.0,101,1,3,2023,3,23,11,8
170.98109919996932,0.6978918000822887,word_neg,0.586380900000222,snub,b,0.0,male,21.0,101,1,3,2023,3,23,11,8
180.98093800002243,0.6980858999304473,word_pos,0.3885901001049205,car,y,0.0,male,21.0,101,1,3,2023,3,23,11,8
190.9812839999795,0.6978861000389145,word_pos,0.5884373000590131,couple,y,0.0,male,21.0,101,1,3,2023,3,23,11,8
200.9816325999564,0.6975469000171586,word_pos,0.9054242999991402,agreement,y,0.0,male,21.0,101,1,3,2023,3,23,11,8
210.9816663999809,0.6976494999834983,word_pos,0.388893699971959,goldfish,y,0.0,male,21.0,101,1,3,2023,3,23,11,8
220.98164230003024,0.6976464999606549,word_neu,0.7723588000517339,faucet,b,0.0,male,21.0,101,1,3,2023,3,23,11,8
230.9816716000205,0.6977482000365853,word_neg,0.6055721999146044,delirium,b,0.0,male,21.0,101,1,3,2023,3,23,11,8
240.9816656999756,0.6978124000597177,word_pos,0.4719902999931946,family,y,0.0,male,21.0,101,1,3,2023,3,23,11,8
250.98160579998512,0.6981005000416474,word_neu,0.505826500011608,gum,y,0.0,male,21.0,101,1,3,2023,3,23,11,8
260.98209810000844,0.6975401999661699,word_neg,0.6224263000767678,voter,b,0.0,male,21.0,101,1,3,2023,3,23,11,8
270.9816749000456,0.6980651000048965,word_pos,0.4721081000752747,bird,y,0.0,male,21.0,101,1,3,2023,3,23,11,8
280.9820955999894,0.6977466000244021,word_neu,0.6888960000360385,egg,y,0.0,male,21.0,101,1,3,2023,3,23,11,8
290.9820917999605,0.6978753000730649,word_pos,0.6721918999683112,rose,y,0.0,male,21.0,101,1,3,2023,3,23,11,8
300.98235519998707,0.6977271999930963,word_pos,0.4387976999860257,coffee,y,0.0,male,21.0,101,1,3,2023,3,23,11,8
310.9823730000062,0.6977779000299051,word_neu,0.7389261999633163,reality,y,0.0,male,21.0,101,1,3,2023,3,23,11,8
320.98258289997466,0.6976969999959692,word_neg,0.8223844999447465,criminal,b,0.0,male,21.0,101,1,3,2023,3,23,11,8
330.98272810003255,0.697577300015837,word_neu,0.5223379000090063,pencil,y,0.0,male,21.0,101,1,3,2023,3,23,11,8
340.9842187999748,0.6961711000184891,word_neu,1.0721324000041932,jungle,y,0.0,male,21.0,101,1,3,2023,3,23,11,8
350.9823866999941,0.698166299960576,word_neu,0.3723700999980792,jam,y,0.0,male,21.0,101,1,3,2023,3,23,11,8
360.983070999966,0.6974692000076175,word_pos,0.4221444999566301,butterfly,y,0.0,male,21.0,101,1,3,2023,3,23,11,8
370.9829711000202,0.6977456000167876,word_pos,0.922311499947682,raspberry,y,0.0,male,21.0,101,1,3,2023,3,23,11,8
380.9830980000552,0.6976305999560282,word_neg,1.03916130005382,radish,b,0.0,male,21.0,101,1,3,2023,3,23,11,8
390.9830837000627,0.6977362999459729,word_neg,0.5056859999895096,grievance,b,0.0,male,21.0,101,1,3,2023,3,23,11,8
400.9832277999958,0.6976597000611946,word_neg,0.6888444001087919,shame,b,0.0,male,21.0,101,1,3,2023,3,23,11,8
410.98314020002726,0.6978580999420956,word_neg,0.6557518999325112,debate,b,0.0,male,21.0,101,1,3,2023,3,23,11,8
420.9833384000231,0.6977399999740896,word_neg,0.7056771999923512,reporter,b,0.0,male,21.0,101,1,3,2023,3,23,11,8
430.9833978000097,0.6977924000239,word_neu,0.6724521999713033,toe,b,0.0,male,21.0,101,1,3,2023,3,23,11,8
440.9835835000267,0.6976395000237972,word_pos,0.5557144000194967,island,y,0.0,male,21.0,101,1,3,2023,3,23,11,8
450.9834025000455,0.6977402999764308,word_neu,0.6890977999428287,plane,y,0.0,male,21.0,101,1,3,2023,3,23,11,8
460.9835772999795,0.6978112000506371,word_neg,0.7723457000683993,trial,b,0.0,male,21.0,101,1,3,2023,3,23,11,8
470.9837535000406,0.6976821999996901,word_pos,0.6709982000757009,symphony,y,0.0,male,21.0,101,1,3,2023,3,23,11,8
480.9839775,0.6975897999946028,word_neg,0.5056492999428883,cyclone,b,0.0,male,21.0,101,1,3,2023,3,23,11,8
490.9839528000448,0.6977754000108689,word_neu,1.1724716000026092,patent,b,0.0,male,21.0,101,1,3,2023,3,23,11,8
500.98409290006384,0.6976953999837292,word_neu,0.6389412999851629,cabinet,b,0.0,male,21.0,101,1,3,2023,3,23,11,8
510.9838315000525,0.6979859999846667,word_pos,0.772460600011982,joy,y,0.0,male,21.0,101,1,3,2023,3,23,11,8
520.9841963000363,0.6977323999162763,word_pos,0.4391055000014603,advantage,y,0.0,male,21.0,101,1,3,2023,3,23,11,8
530.9843148000073,0.6977517999475822,word_neu,0.8059363000793383,cafeteria,b,0.0,male,21.0,101,1,3,2023,3,23,11,8
540.9844986000098,0.6976485999766737,word_pos,0.7059103000210598,saxophone,y,0.0,male,21.0,101,1,3,2023,3,23,11,8
550.9845156000229,0.697715500020422,word_neg,1.0390387000516057,cabbage,b,0.0,male,21.0,101,1,3,2023,3,23,11,8
560.9842989000026,0.6979908000212163,word_neu,0.7392118000425398,pen,b,0.0,male,21.0,101,1,3,2023,3,23,11,8
570.9847050999524,0.6976923000765964,word_pos,0.4055404999526217,fountain,y,0.0,male,21.0,101,1,3,2023,3,23,11,8
580.984493499971,0.6980011999839917,word_neg,0.7726377999642864,cold,b,0.0,male,21.0,101,1,3,2023,3,23,11,8
590.9843013000209,0.6982764999847859,word_neu,0.5392472000094131,sum,b,0.0,male,21.0,101,1,3,2023,3,23,11,8
7.285394000005908,0.6868342999950983,image_pos,,car,,,female,20.0,107,1,3,2023,3,21,10,30
17.283709099981934,0.6892231000238098,image_neg,,cold,,,female,20.0,107,1,3,2023,3,21,10,30
27.28432709997287,0.6891490000416525,image_pos,,bird,,,female,20.0,107,1,3,2023,3,21,10,30
37.28465300000971,0.6894225999712944,image_neg,,jam,,,female,20.0,107,1,3,2023,3,21,10,30
47.2848375000176,0.6894481999915953,image_neg,,toe,,,female,20.0,107,1,3,2023,3,21,10,30
57.285108599986415,0.6894884000066668,image_neg,,foot,,,female,20.0,107,1,3,2023,3,21,10,30
64.68630489998031,0.6888714000233449,image_pos,,hope,,,female,20.0,107,1,3,2023,3,21,10,30
77.2861393999774,0.6896304000401869,image_neg,,reporter,,,female,20.0,107,1,3,2023,3,21,10,30
84.68704859999707,0.6888028000248596,image_pos,,saxophone,,,female,20.0,107,1,3,2023,3,21,10,30
94.68779429997085,0.6887640000204556,image_pos,,computer,,,female,20.0,107,1,3,2023,3,21,10,30
104.68716839997796,0.6898545000003509,image_neg,,tuba,,,female,20.0,107,1,3,2023,3,21,10,30
117.28826880000996,0.6895704999915466,image_pos,,butterfly,,,female,20.0,107,1,3,2023,3,21,10,30
127.28866530000232,0.6894330999930389,image_neg,,trial,,,female,20.0,107,1,3,2023,3,21,10,30
134.68874559999676,0.6899954000255093,image_neg,,volcano,,,female,20.0,107,1,3,2023,3,21,10,30
147.28923230001237,0.689552299969364,image_neg,,cyclone,,,female,20.0,107,1,3,2023,3,21,10,30
154.69010579999303,0.6892635999829793,image_neg,,snub,,,female,20.0,107,1,3,2023,3,21,10,30
164.6902531000087,0.6896190000115894,image_neg,,belch,,,female,20.0,107,1,3,2023,3,21,10,30
177.29103869997198,0.6893291000160389,image_pos,,rose,,,female,20.0,107,1,3,2023,3,21,10,30
187.2914826999768,0.689549500006251,image_neg,,debate,,,female,20.0,107,1,3,2023,3,21,10,30
194.6919554999913,0.6898559000110538,image_pos,,raspberry,,,female,20.0,107,1,3,2023,3,21,10,30
207.2925364000257,0.6892285999492458,image_pos,,plane,,,female,20.0,107,1,3,2023,3,21,10,30
214.69294320000336,0.689324899984058,image_pos,,year,,,female,20.0,107,1,3,2023,3,21,10,30
224.70988689997463,0.6896093999967263,image_neg,,cabbage,,,female,20.0,107,1,3,2023,3,21,10,30
237.31027429999085,0.6897916999878362,image_pos,,agreement,,,female,20.0,107,1,3,2023,3,21,10,30
247.3107928999816,0.6898689999943883,image_pos,,family,,,female,20.0,107,1,3,2023,3,21,10,30
254.7110309000127,0.6897560000070087,image_neg,,voter,,,female,20.0,107,1,3,2023,3,21,10,30
267.31195090000983,0.6893513000104576,image_neg,,malice,,,female,20.0,107,1,3,2023,3,21,10,30
277.31268169998657,0.6892583000008017,image_pos,,couple,,,female,20.0,107,1,3,2023,3,21,10,30
284.71291379997274,0.6891538000199944,image_pos,,park,,,female,20.0,107,1,3,2023,3,21,10,30
297.31378179998137,0.6890535000130171,image_neg,,criminal,,,female,20.0,107,1,3,2023,3,21,10,30
304.7136004000204,0.689528499962762,image_pos,,island,,,female,20.0,107,1,3,2023,3,21,10,30
314.713957800006,0.6897852999973111,image_pos,,flute,,,female,20.0,107,1,3,2023,3,21,10,30
324.7144667999819,0.6894838000298478,image_pos,,faucet,,,female,20.0,107,1,3,2023,3,21,10,30
334.7148805999896,0.6898977999807698,image_neg,,pencil,,,female,20.0,107,1,3,2023,3,21,10,30
347.3150954999728,0.6899869000189938,image_neg,,dusty,,,female,20.0,107,1,3,2023,3,21,10,30
354.71596679999493,0.6894343000021763,image_neg,,radish,,,female,20.0,107,1,3,2023,3,21,10,30
367.31641520000994,0.6897213999764631,image_neg,,tobacco,,,female,20.0,107,1,3,2023,3,21,10,30
377.3170685999794,0.6894064000226194,image_neg,,pen,,,female,20.0,107,1,3,2023,3,21,10,30
384.7176145000267,0.6890472999656936,image_neg,,cabinet,,,female,20.0,107,1,3,2023,3,21,10,30
394.7181581999757,0.6891836000141325,image_pos,,spiritual,,,female,20.0,107,1,3,2023,3,21,10,30
404.71838949999074,0.6891804999904707,image_pos,,goldfish,,,female,20.0,107,1,3,2023,3,21,10,30
417.3192600000184,0.6893533999681836,image_neg,,patent,,,female,20.0,107,1,3,2023,3,21,10,30
427.31943560001673,0.6894137999624945,image_neg,,grievance,,,female,20.0,107,1,3,2023,3,21,10,30
434.719666399993,0.689618700009305,image_pos,,witness,,,female,20.0,107,1,3,2023,3,21,10,30
444.7202217999729,0.6896017000545385,image_pos,,egg,,,female,20.0,107,1,3,2023,3,21,10,30
457.3377551999874,0.6892366000101902,image_pos,,gum,,,female,20.0,107,1,3,2023,3,21,10,30
467.3382144999923,0.6892489999881946,image_pos,,joy,,,female,20.0,107,1,3,2023,3,21,10,30
477.3385799999815,0.6890674000023296,image_neg,,tax,,,female,20.0,107,1,3,2023,3,21,10,30
484.73857190000126,0.6899190000258386,image_pos,,fountain,,,female,20.0,107,1,3,2023,3,21,10,30
497.33908120001433,0.6899377999943681,image_neg,,delirium,,,female,20.0,107,1,3,2023,3,21,10,30
507.3398490999825,0.6895403999952237,image_neg,,shame,,,female,20.0,107,1,3,2023,3,21,10,30
517.3404090999975,0.6891886999947019,image_neg,,jungle,,,female,20.0,107,1,3,2023,3,21,10,30
527.3411347999936,0.6894571000011638,image_neg,,sum,,,female,20.0,107,1,3,2023,3,21,10,30
534.741231299995,0.6894278000108898,image_pos,,advantage,,,female,20.0,107,1,3,2023,3,21,10,30
544.7415075000026,0.6896075999829918,image_pos,,reality,,,female,20.0,107,1,3,2023,3,21,10,30
554.7421260999981,0.6895436000195332,image_neg,,harp,,,female,20.0,107,1,3,2023,3,21,10,30
567.3425210000132,0.6896116000134498,image_neg,,glass,,,female,20.0,107,1,3,2023,3,21,10,30
577.3428717000061,0.68998249998549,image_neg,,cafeteria,,,female,20.0,107,1,3,2023,3,21,10,30
587.3437795999926,0.6892466000281274,image_pos,,coffee,,,female,20.0,107,1,3,2023,3,21,10,30
594.7440592999919,0.6891171000315808,image_pos,,symphony,,,female,20.0,107,1,3,2023,3,21,10,30
0.9806653999839908,0.6917121000005865,word_pos,,car,,,female,20.0,107,1,3,2023,3,21,10,30
10.974518299975898,0.6980503000086173,word_neg,,cold,,,female,20.0,107,1,3,2023,3,21,10,30
20.97651659999974,0.6966641999897512,word_pos,,bird,,,female,20.0,107,1,3,2023,3,21,10,30
30.977557300007906,0.6959796000155585,word_neu,,jam,,,female,20.0,107,1,3,2023,3,21,10,30
40.97635780001292,0.6980502000078559,word_neu,,toe,,,female,20.0,107,1,3,2023,3,21,10,30
50.977260200015735,0.6972850000020117,word_neg,,foot,,,female,20.0,107,1,3,2023,3,21,10,30
60.97817910002777,0.6965596999507397,word_pos,,hope,,,female,20.0,107,1,3,2023,3,21,10,30
70.97801909997361,0.6975964000448585,word_neg,,reporter,,,female,20.0,107,1,3,2023,3,21,10,30
80.98026119999122,0.695671699999366,word_pos,,saxophone,,,female,20.0,107,1,3,2023,3,21,10,30
90.9796415999881,0.6969918999820948,word_pos,,computer,,,female,20.0,107,1,3,2023,3,21,10,30
100.97848360001808,0.6983373999828331,word_neu,,tuba,,,female,20.0,107,1,3,2023,3,21,10,30
110.98060940002324,0.6965530999586775,word_pos,,butterfly,,,female,20.0,107,1,3,2023,3,21,10,30
120.97995609999634,0.6977956999908201,word_neg,,trial,,,female,20.0,107,1,3,2023,3,21,10,30
130.98289530002512,0.6953562999842688,word_neg,,volcano,,,female,20.0,107,1,3,2023,3,21,10,30
140.9810614999733,0.6978346999967471,word_neg,,cyclone,,,female,20.0,107,1,3,2023,3,21,10,30
150.98081949999323,0.6985752999898978,word_neg,,snub,,,female,20.0,107,1,3,2023,3,21,10,30
160.98192839999683,0.6974935000180267,word_neg,,belch,,,female,20.0,107,1,3,2023,3,21,10,30
170.98197800002526,0.6985098999575712,word_pos,,rose,,,female,20.0,107,1,3,2023,3,21,10,30
180.9830780000193,0.6977466999669275,word_neg,,debate,,,female,20.0,107,1,3,2023,3,21,10,30
190.98335090000185,0.6974941000225385,word_pos,,raspberry,,,female,20.0,107,1,3,2023,3,21,10,30
200.98359100002563,0.6981251999968663,word_neu,,plane,,,female,20.0,107,1,3,2023,3,21,10,30
210.98397820000537,0.6983774999971217,word_neu,,year,,,female,20.0,107,1,3,2023,3,21,10,30
221.0021795000066,0.6971864000079222,word_neg,,cabbage,,,female,20.0,107,1,3,2023,3,21,10,30
231.00197530002333,0.6996537999948202,word_pos,,agreement,,,female,20.0,107,1,3,2023,3,21,10,30
241.00399200001263,0.6962470000144378,word_pos,,family,,,female,20.0,107,1,3,2023,3,21,10,30
251.00301789998773,0.6974505999824316,word_neg,,voter,,,female,20.0,107,1,3,2023,3,21,10,30
261.0029143000138,0.6982843999867328,word_neg,,malice,,,female,20.0,107,1,3,2023,3,21,10,30
271.003113600018,0.6989062000065474,word_pos,,couple,,,female,20.0,107,1,3,2023,3,21,10,30
281.0044752000249,0.697689499997125,word_pos,,park,,,female,20.0,107,1,3,2023,3,21,10,30
291.0049682999961,0.6971942000091076,word_neg,,criminal,,,female,20.0,107,1,3,2023,3,21,10,30
301.00540780002484,0.6972533999942243,word_pos,,island,,,female,20.0,107,1,3,2023,3,21,10,30
311.0056764999754,0.6977998000220396,word_pos,,flute,,,female,20.0,107,1,3,2023,3,21,10,30
321.0059379999875,0.6979299000231549,word_neu,,faucet,,,female,20.0,107,1,3,2023,3,21,10,30
331.0066361000063,0.6977687000180595,word_neu,,pencil,,,female,20.0,107,1,3,2023,3,21,10,30
341.00706620002165,0.6976048999931663,word_neg,,dusty,,,female,20.0,107,1,3,2023,3,21,10,30
351.00798990001203,0.6973349999752827,word_neg,,radish,,,female,20.0,107,1,3,2023,3,21,10,30
361.0085443999851,0.6972431000322104,word_neg,,tobacco,,,female,20.0,107,1,3,2023,3,21,10,30
371.0087379000033,0.6972886999719776,word_neu,,pen,,,female,20.0,107,1,3,2023,3,21,10,30
381.0092430000077,0.6971644000150263,word_neu,,cabinet,,,female,20.0,107,1,3,2023,3,21,10,30
391.0096357999719,0.6976591999992365,word_neu,,spiritual,,,female,20.0,107,1,3,2023,3,21,10,30
401.0100479000248,0.6974878999753855,word_pos,,goldfish,,,female,20.0,107,1,3,2023,3,21,10,30
411.0106188000064,0.6972407000138787,word_neu,,patent,,,female,20.0,107,1,3,2023,3,21,10,30
421.01118899998255,0.6974477000185288,word_neg,,grievance,,,female,20.0,107,1,3,2023,3,21,10,30
431.01224229997024,0.696839300042484,word_neu,,witness,,,female,20.0,107,1,3,2023,3,21,10,30
441.0112067000009,0.6983468999969773,word_neu,,egg,,,female,20.0,107,1,3,2023,3,21,10,30
451.0117371000233,0.6982917999848723,word_neu,,gum,,,female,20.0,107,1,3,2023,3,21,10,30
461.02955189999193,0.6976996000157669,word_pos,,joy,,,female,20.0,107,1,3,2023,3,21,10,30
471.02947660000063,0.698244099970907,word_neg,,tax,,,female,20.0,107,1,3,2023,3,21,10,30
481.03039660002105,0.6975316999596544,word_pos,,fountain,,,female,20.0,107,1,3,2023,3,21,10,30
491.0306783000124,0.6977042999932905,word_neg,,delirium,,,female,20.0,107,1,3,2023,3,21,10,30
501.0305850000004,0.6985375999938697,word_neg,,shame,,,female,20.0,107,1,3,2023,3,21,10,30
511.0318342000246,0.6976826999452896,word_neu,,jungle,,,female,20.0,107,1,3,2023,3,21,10,30
521.032023000007,0.6981615999829955,word_neu,,sum,,,female,20.0,107,1,3,2023,3,21,10,30
531.0328249000013,0.6976855000248179,word_pos,,advantage,,,female,20.0,107,1,3,2023,3,21,10,30
541.0334957999876,0.6974924000096507,word_neu,,reality,,,female,20.0,107,1,3,2023,3,21,10,30
551.0333489999757,0.6983303000451997,word_neu,,harp,,,female,20.0,107,1,3,2023,3,21,10,30
561.034334499971,0.6976489000371657,word_neu,,glass,,,female,20.0,107,1,3,2023,3,21,10,30
571.03507849999,0.6971831999835558,word_neu,,cafeteria,,,female,20.0,107,1,3,2023,3,21,10,30
581.0356443999917,0.6972429000306875,word_pos,,coffee,,,female,20.0,107,1,3,2023,3,21,10,30
591.0355909999926,0.6974407000234351,word_pos,,symphony,,,female,20.0,107,1,3,2023,3,21,10,30
4.689724500000011,0.6825591000379063,image_neg,,corkscrew,,,female,20.0,107,1,1,2023,3,21,9,50
14.687122000032105,0.6854409999796189,image_pos,,beach,,,female,20.0,107,1,1,2023,3,21,9,50
24.68409170000814,0.6891843000194058,image_neg,,hamster,,,female,20.0,107,1,1,2023,3,21,9,50
34.68520450004144,0.6886022000107843,image_pos,,pie,,,female,20.0,107,1,1,2023,3,21,9,50
47.28472130000591,0.689560100028757,image_pos,,fence,,,female,20.0,107,1,1,2023,3,21,9,50
57.28521340002772,0.6918906000209901,image_pos,,spatula,,,female,20.0,107,1,1,2023,3,21,9,50
67.28604010003619,0.6892007999704219,image_pos,,happy,,,female,20.0,107,1,1,2023,3,21,9,50
74.68584510002984,0.6897340000141412,image_pos,,whale,,,female,20.0,107,1,1,2023,3,21,9,50
84.68625410000095,0.6897685000440106,image_neg,,rocket,,,female,20.0,107,1,1,2023,3,21,9,50
94.68965200003004,0.6867673000087962,image_pos,,lemonade,,,female,20.0,107,1,1,2023,3,21,9,50
107.28776050003944,0.6893900000141002,image_pos,,zoo,,,female,20.0,107,1,1,2023,3,21,9,50
117.28848200000355,0.689087800041321,image_pos,,love,,,female,20.0,107,1,1,2023,3,21,9,50
127.28861260000848,0.689277300029076,image_pos,,limousine,,,female,20.0,107,1,1,2023,3,21,9,50
134.68868750002002,0.6898019000072964,image_neg,,bridge,,,female,20.0,107,1,1,2023,3,21,9,50
147.28950710000936,0.6894453000277281,image_pos,,plum,,,female,20.0,107,1,1,2023,3,21,9,50
154.69001580000622,0.6894421000033617,image_pos,,moral,,,female,20.0,107,1,1,2023,3,21,9,50
164.69042780000018,0.6893397000385448,image_pos,,boat,,,female,20.0,107,1,1,2023,3,21,9,50
177.2912363000214,0.6890794000355527,image_neg,,embassy,,,female,20.0,107,1,1,2023,3,21,9,50
187.2910632000421,0.6897708000033447,image_neg,,meeting,,,female,20.0,107,1,1,2023,3,21,9,50
197.2917152000009,0.6895844000391662,image_pos,,school,,,female,20.0,107,1,1,2023,3,21,9,50
207.29183550004385,0.6898890999727598,image_neg,,alligator,,,female,20.0,107,1,1,2023,3,21,9,50
217.29247760004364,0.6897331000072882,image_neg,,bribe,,,female,20.0,107,1,1,2023,3,21,9,50
224.6925996000064,0.6897617000504113,image_neg,,man,,,female,20.0,107,1,1,2023,3,21,9,50
237.29296680004336,0.6902494999812916,image_neg,,aggressive,,,female,20.0,107,1,1,2023,3,21,9,50
244.6936773000052,0.6896293000318394,image_pos,,fun,,,female,20.0,107,1,1,2023,3,21,9,50
254.69394480000483,0.6900686000008136,image_pos,,new,,,female,20.0,107,1,1,2023,3,21,9,50
264.6944571000058,0.6899743000394665,image_neg,,lonely,,,female,20.0,107,1,1,2023,3,21,9,50
274.69520480005303,0.689506699971389,image_pos,,truck,,,female,20.0,107,1,1,2023,3,21,9,50
284.6954444000148,0.6898804000229575,image_pos,,lake,,,female,20.0,107,1,1,2023,3,21,9,50
297.2982160000247,0.6877861000248231,image_neg,,deceit,,,female,20.0,107,1,1,2023,3,21,9,50
304.69635740004014,0.690160800004378,image_neg,,avalanche,,,female,20.0,107,1,1,2023,3,21,9,50
314.6964191000443,0.6903940999764018,image_neg,,jury,,,female,20.0,107,1,1,2023,3,21,9,50
324.6971639000112,0.6901144000003683,image_pos,,pineapple,,,female,20.0,107,1,1,2023,3,21,9,50
334.6976708000293,0.6898842999944463,image_neg,,sandpaper,,,female,20.0,107,1,1,2023,3,21,9,50
344.697872400051,0.6904479999793693,image_neg,,field,,,female,20.0,107,1,1,2023,3,21,9,50
357.29840990004595,0.6903733999934047,image_neg,,commander,,,female,20.0,107,1,1,2023,3,21,9,50
364.6990663000033,0.6899942000163719,image_pos,,kiss,,,female,20.0,107,1,1,2023,3,21,9,50
377.2996722000535,0.689939899952094,image_pos,,oak,,,female,20.0,107,1,1,2023,3,21,9,50
384.7000511000515,0.6900384000036865,image_pos,,tomato,,,female,20.0,107,1,1,2023,3,21,9,50
394.7002228000201,0.6904440000072327,image_neg,,mouse,,,female,20.0,107,1,1,2023,3,21,9,50
404.70092620002106,0.6900228000013158,image_neg,,plot,,,female,20.0,107,1,1,2023,3,21,9,50
417.3014217000455,0.6900596999911954,image_neg,,beer,,,female,20.0,107,1,1,2023,3,21,9,50
424.7185029000393,0.6901319000171497,image_pos,,sled,,,female,20.0,107,1,1,2023,3,21,9,50
437.3193023000495,0.6899616000009132,image_pos,,garden,,,female,20.0,107,1,1,2023,3,21,9,50
447.319781600032,0.6898967999732122,image_pos,,wealthy,,,female,20.0,107,1,1,2023,3,21,9,50
457.32006990001537,0.6899494000245454,image_neg,,envy,,,female,20.0,107,1,1,2023,3,21,9,50
464.72031900001457,0.690184400009457,image_pos,,tourist,,,female,20.0,107,1,1,2023,3,21,9,50
477.3211471000104,0.6900317000108771,image_neg,,diplomat,,,female,20.0,107,1,1,2023,3,21,9,50
484.7211134000099,0.690315300016664,image_neg,,victim,,,female,20.0,107,1,1,2023,3,21,9,50
497.3219372000312,0.6901239000144983,image_neg,,hospital,,,female,20.0,107,1,1,2023,3,21,9,50
504.72271820000606,0.6896793000051389,image_pos,,keyboard,,,female,20.0,107,1,1,2023,3,21,9,50
517.3233071000432,0.6896422000136226,image_pos,,fiddle,,,female,20.0,107,1,1,2023,3,21,9,50
524.7236304000253,0.689517299993895,image_pos,,treaty,,,female,20.0,107,1,1,2023,3,21,9,50
534.7239808000159,0.6897402000031434,image_pos,,noun,,,female,20.0,107,1,1,2023,3,21,9,50
547.3244614000432,0.6899553000112064,image_neg,,famous,,,female,20.0,107,1,1,2023,3,21,9,50
554.7246998000192,0.6899122000322677,image_pos,,woman,,,female,20.0,107,1,1,2023,3,21,9,50
564.7249082000344,0.6902170999674127,image_neg,,tornado,,,female,20.0,107,1,1,2023,3,21,9,50
577.3256359000225,0.6902347999857739,image_neg,,policeman,,,female,20.0,107,1,1,2023,3,21,9,50
584.7259137000074,0.6901653000386432,image_neg,,gasp,,,female,20.0,107,1,1,2023,3,21,9,50
594.7264594000299,0.6901671999949031,image_neg,,hurricane,,,female,20.0,107,1,1,2023,3,21,9,50
0.982611600018572,0.6894001000327991,word_neu,,corkscrew,,,female,20.0,107,1,1,2023,3,21,9,50
10.976303600007668,0.6959476000047271,word_pos,,beach,,,female,20.0,107,1,1,2023,3,21,9,50
20.9791270000278,0.6939763000118582,word_neu,,hamster,,,female,20.0,107,1,1,2023,3,21,9,50
30.97651810001116,0.6969539000419935,word_pos,,pie,,,female,20.0,107,1,1,2023,3,21,9,50
40.97750750003616,0.696463499974918,word_neu,,fence,,,female,20.0,107,1,1,2023,3,21,9,50
50.97733070002869,0.6969602999743145,word_neu,,spatula,,,female,20.0,107,1,1,2023,3,21,9,50
60.98036100005265,0.6944993999786675,word_pos,,happy,,,female,20.0,107,1,1,2023,3,21,9,50
70.97746050002752,0.6978542000288144,word_neu,,whale,,,female,20.0,107,1,1,2023,3,21,9,50
80.97788340004627,0.6980004999786615,word_neu,,rocket,,,female,20.0,107,1,1,2023,3,21,9,50
90.9787524000276,0.6977150000166006,word_pos,,lemonade,,,female,20.0,107,1,1,2023,3,21,9,50
100.97991260001436,0.6969382000388578,word_pos,,zoo,,,female,20.0,107,1,1,2023,3,21,9,50
110.98073600005593,0.696451799944029,word_pos,,love,,,female,20.0,107,1,1,2023,3,21,9,50
120.97989270003744,0.6978417999926165,word_pos,,limousine,,,female,20.0,107,1,1,2023,3,21,9,50
130.9810413000523,0.6971057999762706,word_neu,,bridge,,,female,20.0,107,1,1,2023,3,21,9,50
140.98032900004182,0.6983134999754839,word_pos,,plum,,,female,20.0,107,1,1,2023,3,21,9,50
150.98101870005485,0.6979204999516071,word_pos,,moral,,,female,20.0,107,1,1,2023,3,21,9,50
160.9812915000366,0.6981377999763936,word_pos,,boat,,,female,20.0,107,1,1,2023,3,21,9,50
170.98199980001664,0.6980898000183515,word_neu,,embassy,,,female,20.0,107,1,1,2023,3,21,9,50
180.98261060001096,0.6977223000139645,word_neg,,meeting,,,female,20.0,107,1,1,2023,3,21,9,50
190.9832964000525,0.6976524999481342,word_neu,,school,,,female,20.0,107,1,1,2023,3,21,9,50
200.9837155000423,0.6976700999657623,word_neg,,alligator,,,female,20.0,107,1,1,2023,3,21,9,50
210.98395290004555,0.6979480999871157,word_neg,,bribe,,,female,20.0,107,1,1,2023,3,21,9,50
220.98531430005096,0.6971322000026703,word_neu,,man,,,female,20.0,107,1,1,2023,3,21,9,50
230.98505950003164,0.6977597000077083,word_neg,,aggressive,,,female,20.0,107,1,1,2023,3,21,9,50
240.98490220005624,0.6984336999594518,word_pos,,fun,,,female,20.0,107,1,1,2023,3,21,9,50
250.985506200057,0.698246099986136,word_pos,,new,,,female,20.0,107,1,1,2023,3,21,9,50
260.9863850000547,0.6979563999921083,word_neg,,lonely,,,female,20.0,107,1,1,2023,3,21,9,50
